timestamp,acceleration.x,acceleration.y,acceleration.z
1.487303916045e+12,-0.14,-0.02,1.01
1.487303916542e+12,-0.13,0.01,0.96
1.487303917023e+12,-0.14,0.00,0.95
1.487303917517e+12,-0.15,-0.01,0.97
1.487303917996e+12,-0.15,-0.00,0.97
1.487303918507e+12,-0.13,-0.02,1.01
1.487303918989e+12,-0.14,0.00,0.95
1.487303919484e+12,-0.15,0.02,0.99
1.487303919982e+12,-0.17,0.04,1.02
1.487303920476e+12,-0.17,0.05,0.97
1.487303920957e+12,-0.11,0.09,0.96
1.487303921453e+12,-0.07,0.10,0.97
1.48730392195e+12,-0.09,0.09,0.99
1.487303922429e+12,-0.03,0.05,0.95
1.487303922923e+12,-0.10,-0.01,0.97
1.487303923419e+12,-0.11,-0.06,0.97
1.487303923916e+12,-0.12,-0.09,1.08
1.487303924411e+12,-0.09,0.01,0.96
1.487303924908e+12,-0.06,-0.03,1.01
1.487303925403e+12,-0.11,-0.03,0.99
1.487303925883e+12,-0.10,0.02,0.96
1.487303926378e+12,-0.10,0.06,0.98
1.487303926877e+12,-0.07,0.11,1.00
1.487303927371e+12,-0.09,0.02,0.94
1.487303927867e+12,-0.07,-0.09,1.04
1.487303928362e+12,-0.04,-0.07,0.99
1.487303928842e+12,-0.12,-0.08,0.99
1.487303929355e+12,-0.12,-0.10,1.00
1.487303929834e+12,-0.15,-0.07,0.98
1.487303930349e+12,-0.05,-0.07,1.04
1.487303930843e+12,-0.06,-0.01,1.05
1.487303931338e+12,-0.05,0.03,1.03
1.487303931833e+12,-0.06,0.03,0.98
1.487303932333e+12,-0.17,-0.03,0.97
1.487303932826e+12,-0.04,-0.06,1.00
1.487303933323e+12,-0.04,-0.02,1.04
1.487303933819e+12,-0.05,0.00,1.06
1.487303934314e+12,-0.06,0.05,1.02
1.487303934809e+12,-0.06,0.05,0.98
1.487303935306e+12,-0.17,-0.02,0.96
1.487303935786e+12,-0.08,-0.05,0.96
1.487303936299e+12,-0.05,-0.02,1.04
1.487303936793e+12,-0.06,0.00,1.05
1.48730393729e+12,-0.05,0.05,1.04
1.487303937785e+12,-0.06,0.05,1.03
1.487303938283e+12,-0.05,0.13,1.00
1.487303938797e+12,-0.14,0.12,1.03
1.487303939273e+12,-0.06,0.18,0.97
1.487303939769e+12,-0.05,0.13,1.02
1.487303940281e+12,-0.03,0.01,1.02
1.487303940762e+12,-0.03,-0.05,0.98
1.487303941256e+12,0.07,-0.06,0.92
1.487303941753e+12,-0.10,-0.05,0.97
1.487303942233e+12,-0.13,-0.07,0.97
1.487303942745e+12,-0.06,-0.03,1.04
1.48730394324e+12,-0.17,-0.07,1.03
1.487303943737e+12,0.01,-0.08,0.94
1.487303944233e+12,-0.14,-0.13,1.02
1.487303944728e+12,-0.11,-0.03,0.97
1.487303945225e+12,-0.05,-0.00,1.04
1.48730394572e+12,-0.16,-0.04,1.01
1.487303946216e+12,-0.03,0.09,0.96
1.487303946711e+12,-0.12,0.10,1.01
1.487303947192e+12,0.00,0.06,0.97
1.487303947704e+12,-0.09,0.16,1.02
1.487303948153e+12,0.00,0.15,0.96
1.487303948632e+12,-0.01,0.10,0.98
1.487303949128e+12,0.01,0.06,0.98
1.487303949625e+12,-0.03,0.06,1.05
1.487303950121e+12,-0.03,0.07,0.98
1.487303950618e+12,-0.11,0.11,1.02
1.487303951111e+12,-0.04,0.13,0.96
1.487303951607e+12,-0.06,0.05,1.01
1.487303952104e+12,-0.07,0.06,1.01
1.4873039526e+12,-0.02,0.07,0.91
1.487303953097e+12,-0.04,-0.04,1.04
1.487303953592e+12,-0.10,-0.06,1.03
1.487303954088e+12,-0.04,-0.01,1.02
1.4873039546e+12,-0.17,0.04,1.02
1.487303955082e+12,-0.09,-0.09,0.99
1.487303955575e+12,-0.07,-0.05,0.94
1.487303956071e+12,-0.06,-0.15,0.98
1.487303956566e+12,-0.09,-0.06,1.00
1.487303957065e+12,-0.13,-0.21,0.99
1.487303957544e+12,-0.09,-0.08,0.98
1.487303958039e+12,-0.02,-0.16,0.95
1.487303958534e+12,-0.10,-0.05,1.08
1.487303959047e+12,-0.06,-0.13,1.05
1.487303959526e+12,-0.08,-0.11,0.99
1.487303960022e+12,-0.13,-0.17,0.93
1.487303960519e+12,-0.08,-0.19,1.03
1.487303961016e+12,-0.11,-0.16,0.94
1.48730396151e+12,0.01,-0.14,0.99
1.487303962008e+12,-0.06,-0.08,1.03
1.487303962502e+12,-0.07,-0.12,0.97
1.487303962983e+12,-0.07,-0.11,0.98
1.487303963497e+12,-0.07,-0.00,1.04
1.487303963974e+12,-0.05,0.01,0.98
1.487303964471e+12,-0.10,-0.10,0.98
1.487303964968e+12,-0.08,0.03,1.05
1.487303965463e+12,-0.05,0.05,0.98
1.487303965957e+12,-0.07,-0.07,0.98
1.487303966455e+12,-0.06,-0.01,1.04
1.48730396695e+12,-0.09,0.04,1.02
1.487303967448e+12,-0.07,0.04,0.96
1.487303967925e+12,-0.07,-0.07,0.99
1.487303968438e+12,-0.07,0.02,1.04
1.487303968918e+12,-0.06,0.05,0.97
1.487303969414e+12,-0.10,-0.06,1.00
1.487303969925e+12,-0.05,-0.05,1.00
1.487303970422e+12,-0.07,0.01,1.04
1.487303970916e+12,-0.07,0.04,1.00
1.487303971417e+12,-0.06,-0.00,0.98
1.487303971909e+12,-0.04,-0.07,1.00
1.487303972405e+12,-0.07,-0.01,1.04
1.487303972902e+12,-0.07,0.02,1.00
1.487303973399e+12,-0.07,0.02,0.96
1.487303973878e+12,-0.04,-0.07,0.97
1.487303974391e+12,-0.08,0.02,1.02
1.48730397487e+12,-0.06,0.03,0.96
1.487303975365e+12,-0.06,-0.06,0.98
1.487303975863e+12,-0.06,-0.00,1.04
1.487303976359e+12,-0.05,0.05,0.96
1.487303976853e+12,-0.08,-0.06,1.00
1.487303977349e+12,-0.04,-0.07,1.00
1.487303977845e+12,-0.08,0.00,1.05
1.487303978341e+12,-0.05,0.05,0.96
1.487303978837e+12,-0.07,-0.05,0.99
1.487303979333e+12,-0.07,-0.03,1.04
1.48730397983e+12,-0.08,0.02,1.02
1.487303980325e+12,-0.06,0.04,0.96
1.487303980804e+12,-0.06,-0.06,0.99
1.487303981318e+12,-0.08,0.01,1.05
1.487303981797e+12,-0.06,0.05,0.96
1.487303982293e+12,-0.07,-0.06,1.00
1.487303982804e+12,-0.04,-0.06,1.00
1.487303983301e+12,-0.08,-0.00,1.04
1.487303983781e+12,-0.07,0.04,0.98
1.487303984277e+12,-0.08,-0.05,0.99
1.487303984772e+12,-0.08,-0.02,1.04
1.487303985285e+12,-0.08,0.02,1.01
1.487303985764e+12,-0.05,0.04,0.95
1.487303986259e+12,-0.06,-0.07,0.99
1.487303986756e+12,-0.08,0.01,1.05
1.487303987252e+12,-0.06,0.05,0.96
1.487303987749e+12,-0.07,-0.06,0.99
1.487303988246e+12,-0.07,-0.03,1.04
1.487303988741e+12,-0.09,0.02,1.03
1.487303989237e+12,-0.06,0.04,0.96
1.487303989734e+12,-0.07,-0.06,0.99
1.487303990227e+12,-0.07,-0.00,1.04
1.487303990707e+12,-0.06,0.03,0.98
1.487303991205e+12,-0.08,-0.04,0.99
1.4873039917e+12,-0.08,-0.02,1.04
1.487303992199e+12,-0.08,0.02,1.02
1.487303992694e+12,-0.07,0.03,0.95
1.487303993188e+12,-0.06,-0.06,0.98
1.487303993684e+12,-0.07,0.01,1.04
1.487303994181e+12,-0.06,0.04,0.97
1.487303994677e+12,-0.06,-0.05,1.00
1.487303995172e+12,-0.04,-0.07,0.98
1.487303995667e+12,-0.10,0.01,1.01
1.487303996149e+12,-0.06,0.04,0.95
1.487303996643e+12,-0.05,-0.06,0.99
1.487303997139e+12,-0.09,0.02,1.04
1.487303997636e+12,-0.06,0.04,0.98
1.487303998133e+12,-0.06,-0.07,1.00
1.487303998643e+12,-0.05,-0.05,1.01
1.487303999138e+12,-0.06,-0.02,1.04
1.48730399962e+12,-0.09,0.02,0.99
1.487304000116e+12,-0.08,-0.03,0.99
1.487304000628e+12,-0.05,-0.05,1.03
1.487304001124e+12,-0.08,-0.00,1.04
1.487304001603e+12,-0.07,0.03,0.97
1.487304002099e+12,-0.08,-0.05,0.99
1.487304002594e+12,-0.06,-0.02,1.04
1.487304003106e+12,-0.08,0.01,1.02
1.487304003587e+12,-0.06,0.04,0.94
1.487304004083e+12,-0.07,-0.06,0.99
1.487304004579e+12,-0.08,0.00,1.03
1.487304005075e+12,-0.07,0.03,0.97
1.487304005554e+12,-0.06,-0.05,0.99
1.487304006068e+12,-0.08,-0.01,1.04
1.487304006565e+12,-0.09,0.02,1.00
1.487304007042e+12,-0.07,0.01,0.96
1.487304007539e+12,-0.04,-0.06,0.98
1.487304008036e+12,-0.09,0.01,1.04
1.48730400853e+12,-0.06,0.04,0.95
1.487304009025e+12,-0.07,-0.07,0.99
1.487304009523e+12,-0.08,-0.01,1.04
1.487304010017e+12,-0.08,0.02,0.98
1.487304010514e+12,-0.09,-0.05,1.00
1.487304011009e+12,-0.03,-0.06,0.98
1.487304011505e+12,-0.08,0.01,1.01
1.487304011986e+12,-0.06,0.04,0.96
1.487304012483e+12,-0.06,-0.05,0.98
1.48730401298e+12,-0.07,-0.00,1.04
1.487304013474e+12,-0.07,0.04,0.97
1.487304013969e+12,-0.07,-0.04,0.99
1.487304014465e+12,-0.07,-0.03,1.04
1.487304014962e+12,-0.09,0.01,1.00
1.487304015458e+12,-0.06,0.04,0.95
1.487304015937e+12,-0.05,-0.07,0.98
1.487304016449e+12,-0.09,0.01,1.04
1.48730401693e+12,-0.06,0.04,0.96
1.487304017426e+12,-0.05,-0.04,0.99
1.487304017922e+12,-0.08,-0.01,1.04
1.487304018422e+12,-0.09,0.01,1.00
1.487304018915e+12,-0.09,0.01,0.97
1.487304019409e+12,-0.05,-0.07,0.99
1.487304019904e+12,-0.09,0.02,1.02
1.4873040204e+12,-0.07,0.03,0.96
1.487304020881e+12,-0.06,-0.05,0.99
1.48730402133e+12,-0.08,0.00,0.96
1.487304021824e+12,-0.07,0.04,0.96
1.487304022319e+12,-0.06,-0.06,0.99
1.487304022816e+12,-0.08,-0.01,1.04
1.487304023315e+12,-0.09,0.01,0.99
1.487304023808e+12,-0.10,-0.02,1.00
1.487304024304e+12,-0.07,-0.06,0.99
1.4873040248e+12,-0.07,0.00,1.04
1.487304025282e+12,-0.06,0.04,0.95
1.487304025778e+12,-0.06,-0.06,0.98
1.487304026272e+12,-0.08,0.00,1.03
1.487304026767e+12,-0.07,0.04,0.96
1.487304027266e+12,-0.05,-0.07,0.98
1.48730402776e+12,-0.08,-0.01,1.04
1.487304028239e+12,-0.07,0.03,0.98
1.48730402874e+12,-0.09,-0.04,0.99
1.487304029232e+12,-0.06,-0.03,1.04
1.487304029743e+12,-0.09,0.01,1.03
1.487304030223e+12,-0.07,0.05,0.95
1.487304030718e+12,-0.06,-0.06,0.99
1.487304031169e+12,-0.08,0.00,0.96
1.487304031664e+12,-0.07,0.03,0.96
1.487304032143e+12,-0.06,-0.04,0.98
1.487304032654e+12,-0.08,-0.00,1.04
1.487304033135e+12,-0.05,0.04,0.98
1.487304033631e+12,-0.07,-0.04,0.98
1.487304034128e+12,-0.07,-0.02,1.04
1.487304034622e+12,-0.08,0.01,1.00
1.487304035118e+12,-0.07,0.03,0.96
1.487304035615e+12,-0.04,-0.06,0.98
1.48730403611e+12,-0.08,0.00,1.03
1.487304036595e+12,-0.06,0.03,0.94
1.487304037089e+12,-0.04,-0.06,0.97
1.487304037583e+12,-0.08,0.00,1.04
1.48730403808e+12,-0.06,0.04,0.96
1.487304038574e+12,-0.06,-0.06,0.97
1.48730403907e+12,-0.08,0.00,1.04
1.48730403955e+12,-0.06,0.04,0.96
1.487304040049e+12,-0.06,-0.06,0.98
1.487304040542e+12,-0.08,-0.00,1.04
1.487304041037e+12,-0.06,0.04,0.98
1.487304041518e+12,-0.07,-0.04,0.99
1.487304042031e+12,-0.08,-0.02,1.04
1.487304042527e+12,-0.06,0.02,1.00
1.487304043006e+12,-0.09,0.01,0.97
1.487304043502e+12,-0.04,-0.06,0.98
1.487304044e+12,-0.07,0.01,1.03
1.487304044494e+12,-0.06,0.03,0.97
1.487304044989e+12,-0.07,-0.05,0.99
1.487304045485e+12,-0.07,-0.02,1.04
1.487304045983e+12,-0.07,0.03,1.00
1.487304046478e+12,-0.07,0.02,0.96
1.487304046956e+12,-0.04,-0.06,0.98
1.487304047453e+12,-0.08,0.00,1.04
1.487304047949e+12,-0.07,0.03,0.96
1.48730404845e+12,-0.06,-0.06,0.98
1.48730404894e+12,-0.08,0.00,1.04
1.487304049437e+12,-0.06,0.03,0.96
1.487304049916e+12,-0.05,-0.04,0.98
1.487304050414e+12,-0.09,0.00,1.04
1.487304050908e+12,-0.06,0.03,0.96
1.487304051404e+12,-0.05,-0.05,0.98
1.4873040519e+12,-0.09,0.01,1.04
1.487304052398e+12,-0.07,0.03,0.97
1.487304052891e+12,-0.08,-0.06,1.00
1.487304053388e+12,-0.03,-0.06,0.98
1.487304053869e+12,-0.06,0.03,0.99
1.487304054365e+12,-0.10,-0.03,1.00
1.487304054859e+12,-0.04,-0.06,0.97
1.487304055362e+12,-0.08,0.01,1.04
1.487304055851e+12,-0.06,0.05,0.98
1.487304056348e+12,-0.07,-0.07,1.00
1.487304056843e+12,-0.06,-0.06,1.01
1.487304057357e+12,-0.07,-0.02,1.04
1.487304057851e+12,-0.06,0.03,1.01
1.487304058348e+12,-0.06,0.04,0.96
1.487304058828e+12,-0.06,-0.08,0.98
1.487304059323e+12,-0.05,-0.00,1.02
1.487304059819e+12,-0.04,-0.01,0.97
1.487304060315e+12,-0.05,-0.05,0.99
1.487304060812e+12,-0.07,0.06,1.01
1.487304061306e+12,-0.07,0.12,0.96
1.487304061803e+12,-0.10,0.02,1.00
1.487304062299e+12,-0.11,0.03,0.98
1.487304062797e+12,-0.06,0.03,1.00
1.48730406329e+12,-0.12,0.01,1.04
1.48730406377e+12,-0.07,-0.00,0.97
1.487304064282e+12,-0.09,-0.07,1.00
1.487304064764e+12,-0.05,0.05,0.96
1.487304065274e+12,-0.08,-0.10,1.00
1.487304065722e+12,-0.12,0.00,0.95
1.487304066202e+12,-0.03,-0.03,0.98
1.487304066666e+12,-0.05,0.00,1.05
1.487304067162e+12,-0.01,0.14,0.99
1.487304067645e+12,-0.09,0.12,0.97
1.487304068137e+12,-0.06,0.07,0.99
1.487304068634e+12,-0.04,-0.03,0.97
1.48730406913e+12,-0.13,0.06,1.05
1.487304069625e+12,-0.08,0.08,1.04
1.487304070122e+12,-0.07,0.09,1.02
1.487304070617e+12,-0.04,0.06,0.99
1.487304071114e+12,-0.07,0.15,0.97
1.487304071595e+12,-0.17,0.11,0.98
1.487304072089e+12,-0.04,0.09,0.90
1.487304072586e+12,-0.11,0.12,0.97
1.487304073065e+12,0.01,0.12,0.89
1.487304073563e+12,-0.07,0.09,1.02
1.487304074057e+12,-0.01,0.05,0.95
1.487304074552e+12,-0.11,0.11,0.99
1.487304075033e+12,-0.13,0.06,0.97
1.48730407553e+12,-0.07,0.07,0.97
1.487304076026e+12,-0.17,0.07,1.04
1.487304076521e+12,-0.12,0.05,0.85
1.487304077017e+12,-0.17,0.07,1.12
1.487304077513e+12,-0.02,0.13,0.99
1.487304078008e+12,-0.11,0.05,1.02
1.487304078504e+12,-0.07,-0.03,1.11
1.487304079022e+12,-0.14,0.07,1.01
1.487304079515e+12,-0.19,-0.04,1.00
1.487304080009e+12,-0.10,0.06,1.03
1.487304080505e+12,-0.14,-0.14,1.01
1.487304080953e+12,-0.06,0.00,0.99
1.487304081463e+12,-0.10,-0.05,1.02
1.487304081946e+12,-0.06,-0.05,0.91
1.487304082455e+12,-0.13,-0.02,1.01
1.487304082953e+12,-0.16,-0.10,1.05
1.487304083448e+12,-0.06,-0.02,1.04
1.487304083945e+12,-0.08,-0.17,0.97
1.48730408444e+12,-0.08,-0.10,1.05
1.487304084936e+12,-0.18,-0.12,1.00
1.487304085448e+12,-0.10,-0.07,1.00
1.487304085947e+12,-0.06,-0.15,1.02
1.487304086439e+12,-0.12,-0.15,1.00
1.487304086935e+12,-0.12,-0.19,1.04
1.487304087431e+12,-0.04,-0.15,0.98
1.487304087929e+12,-0.12,-0.12,0.99
1.487304088423e+12,-0.12,-0.08,0.99
1.487304088904e+12,-0.14,-0.03,0.99
1.487304089417e+12,-0.10,-0.09,1.04
1.487304089913e+12,-0.13,-0.13,1.03
1.487304090407e+12,-0.12,0.08,1.04
1.487304090905e+12,-0.08,0.03,0.97
1.487304091383e+12,-0.06,-0.02,0.98
1.48730409188e+12,-0.08,0.05,0.93
1.487304092375e+12,-0.10,-0.02,1.02
1.48730409287e+12,-0.07,0.00,0.93
1.487304093366e+12,-0.15,0.06,1.03
1.487304093862e+12,-0.11,-0.04,1.02
1.487304094313e+12,-0.12,0.00,0.97
1.487304094806e+12,-0.04,-0.08,0.98
1.487304095302e+12,-0.10,-0.07,1.01
1.487304095815e+12,-0.14,0.01,1.05
1.487304096295e+12,-0.13,0.01,0.99
1.487304096791e+12,-0.08,0.04,0.97
1.487304097286e+12,-0.06,-0.01,1.02
1.487304097783e+12,-0.06,0.04,0.93
1.487304098279e+12,-0.14,0.05,1.06
1.487304098774e+12,-0.14,-0.01,1.00
1.487304099271e+12,-0.14,0.05,1.02
1.487304099735e+12,-0.07,0.00,1.04
1.48730410023e+12,-0.14,0.04,1.02
1.487304100725e+12,-0.08,-0.02,0.99
1.487304101222e+12,-0.07,0.01,0.95
1.487304101719e+12,-0.14,0.03,1.00
1.487304102166e+12,-0.05,0.00,1.04
1.487304102662e+12,-0.13,0.03,0.99
1.487304103157e+12,-0.14,0.06,1.05
1.487304103654e+12,-0.02,0.05,0.97
1.487304104149e+12,-0.14,0.08,1.01
1.487304104645e+12,-0.12,0.18,0.97
1.487304105144e+12,-0.20,0.10,1.01
1.487304105621e+12,-0.19,0.12,0.99
1.487304106117e+12,-0.17,0.12,0.94
1.487304106613e+12,-0.15,0.04,1.07
1.48730410711e+12,-0.26,0.07,0.95
1.487304107605e+12,-0.14,0.08,1.02
1.487304108101e+12,-0.23,0.10,1.11
1.487304108597e+12,-0.08,0.07,0.89
1.487304109095e+12,-0.19,0.08,1.06
1.487304109589e+12,-0.08,0.08,0.99
1.487304110085e+12,-0.14,0.04,1.04
1.48730411058e+12,0.03,0.02,1.01
1.487304111078e+12,-0.07,0.11,1.05
1.487304111572e+12,-0.05,0.08,0.96
1.487304112069e+12,-0.12,-0.00,1.03
1.487304112549e+12,-0.04,-0.00,0.94
1.487304113065e+12,-0.07,-0.08,1.09
1.48730411354e+12,-0.09,-0.12,0.94
1.487304114052e+12,-0.12,-0.01,1.03
1.487304114547e+12,-0.05,-0.11,0.96
1.487304115046e+12,-0.06,-0.06,1.03
1.48730411554e+12,-0.11,-0.04,0.96
1.487304116035e+12,-0.05,-0.08,1.01
1.487304116531e+12,-0.14,-0.09,1.05
1.487304117029e+12,-0.07,0.01,0.93
1.487304117507e+12,-0.13,0.00,0.96
1.487304118003e+12,-0.12,0.00,0.98
1.487304118484e+12,-0.11,0.02,0.93
1.487304118981e+12,-0.14,-0.01,0.97
1.487304119476e+12,-0.16,-0.05,1.06
1.487304119972e+12,-0.13,-0.01,0.97
1.487304120467e+12,-0.15,-0.12,1.05
1.487304120963e+12,-0.15,-0.01,0.99
1.48730412146e+12,-0.13,-0.05,1.08
1.487304121971e+12,-0.09,-0.04,1.00
1.487304122452e+12,-0.10,-0.03,0.94
1.487304122949e+12,-0.13,-0.05,0.96
1.487304123444e+12,-0.05,-0.12,0.98
1.487304123939e+12,-0.15,-0.01,1.03
1.487304124435e+12,-0.07,-0.06,0.97
1.487304124914e+12,-0.15,-0.01,0.99
1.487304125411e+12,-0.11,0.00,0.97
1.487304125906e+12,-0.12,-0.04,1.05
1.487304126402e+12,-0.12,-0.03,1.00
1.487304126916e+12,-0.12,-0.01,1.07
1.487304127412e+12,-0.15,0.01,1.00
1.487304127906e+12,-0.10,0.02,1.05
1.487304128403e+12,-0.14,0.04,0.99
1.487304128881e+12,-0.14,0.06,0.96
1.48730412938e+12,-0.13,0.11,0.99
1.487304129874e+12,-0.10,0.16,0.97
1.487304130371e+12,-0.11,0.12,1.03
1.487304130865e+12,-0.13,0.06,0.99
1.487304131345e+12,-0.06,0.06,0.94
1.487304131844e+12,-0.09,0.15,1.00
1.487304132338e+12,-0.13,0.12,0.97
1.487304132835e+12,-0.09,0.14,0.95
1.487304133315e+12,-0.07,0.07,0.93
1.487304133828e+12,-0.14,0.04,1.06
1.487304134305e+12,-0.11,0.02,0.94
1.487304134802e+12,-0.06,-0.08,0.96
1.487304135283e+12,-0.10,0.02,0.98
1.487304135778e+12,-0.13,-0.05,0.98
1.487304136273e+12,-0.11,-0.08,0.99
1.48730413677e+12,-0.07,-0.07,1.02
1.487304137265e+12,-0.05,-0.09,0.97
1.487304137761e+12,-0.09,0.02,0.92
1.487304138256e+12,-0.08,-0.09,1.01
1.487304138753e+12,-0.10,-0.04,1.07
1.487304139248e+12,-0.05,0.01,0.99
1.487304139745e+12,-0.04,-0.05,1.00
1.487304140243e+12,-0.06,0.02,1.02
1.487304140737e+12,-0.20,-0.02,1.07
1.487304141234e+12,-0.00,0.03,0.99
1.487304141732e+12,-0.05,0.02,0.97
1.487304142211e+12,-0.12,0.08,0.99
1.487304142704e+12,0.01,0.07,0.99
1.487304143202e+12,-0.16,-0.01,0.98
1.487304143683e+12,-0.09,-0.07,0.98
1.487304144194e+12,-0.07,-0.09,1.08
1.487304144689e+12,-0.12,-0.08,1.05
1.487304145184e+12,-0.12,-0.10,1.03
1.487304145681e+12,-0.09,-0.11,0.96
1.487304146178e+12,-0.11,-0.12,1.00
1.487304146672e+12,-0.18,-0.09,1.01
1.487304147169e+12,-0.10,0.07,0.97
1.487304147665e+12,-0.05,0.01,1.04
1.487304148177e+12,-0.10,0.05,1.03
1.487304148673e+12,-0.10,0.09,1.01
1.487304149153e+12,-0.01,0.02,0.99
1.487304149665e+12,-0.06,0.02,1.05
1.487304150162e+12,0.01,-0.01,1.02
1.487304150655e+12,-0.06,0.08,1.04
1.487304151152e+12,-0.05,0.06,0.98
1.487304151632e+12,-0.08,0.07,0.92
1.487304152131e+12,-0.10,0.08,1.02
1.487304152593e+12,0.00,0.11,1.07
1.487304153087e+12,-0.09,0.05,0.97
1.487304153583e+12,-0.08,-0.01,1.06
1.487304154032e+12,-0.04,0.00,1.00
1.487304154545e+12,-0.19,-0.02,1.02
1.487304155024e+12,-0.20,-0.06,0.98
1.487304155536e+12,-0.14,-0.11,1.04
1.487304156032e+12,-0.14,-0.14,1.02
1.487304156529e+12,-0.04,-0.15,0.95
1.487304157023e+12,-0.11,-0.07,1.03
1.487304157519e+12,-0.05,-0.06,0.99
1.487304158015e+12,-0.13,-0.06,1.06
1.487304158511e+12,-0.06,-0.12,1.01
1.487304159007e+12,-0.07,-0.08,0.91
1.487304159502e+12,-0.13,-0.13,1.02
1.487304159999e+12,-0.08,-0.11,0.99
1.487304160494e+12,-0.08,-0.10,1.00
1.487304161006e+12,-0.06,-0.05,1.02
1.487304161454e+12,-0.08,0.00,0.97
1.487304161935e+12,-0.08,-0.01,0.96
1.487304162431e+12,-0.07,-0.08,0.99
1.487304162928e+12,-0.10,0.02,1.03
1.487304163423e+12,-0.07,0.02,0.98
1.487304163919e+12,-0.10,-0.06,1.01
1.487304164414e+12,-0.03,-0.03,0.98
1.487304164911e+12,-0.09,0.05,1.01
1.48730416541e+12,-0.08,0.01,0.96
1.487304165902e+12,-0.05,-0.04,0.98
1.487304166397e+12,-0.09,0.04,1.03
1.48730416688e+12,-0.06,0.05,0.94
1.487304167374e+12,-0.06,-0.05,0.98
1.48730416787e+12,-0.09,0.02,1.04
1.487304168367e+12,-0.08,0.03,0.98
1.487304168863e+12,-0.11,-0.06,1.00
1.487304169357e+12,-0.05,-0.04,0.99
1.487304169855e+12,-0.10,0.04,1.02
1.487304170349e+12,-0.07,0.04,0.96
1.487304170846e+12,-0.07,-0.04,0.99
1.487304171345e+12,-0.05,0.00,1.02
1.487304171821e+12,-0.07,0.03,0.98
1.487304172316e+12,-0.09,-0.04,0.99
1.487304172815e+12,-0.08,-0.02,1.03
1.487304173309e+12,-0.10,0.03,1.04
1.487304173805e+12,-0.08,0.04,0.96
1.487304174303e+12,-0.08,-0.05,1.00
1.487304174815e+12,-0.05,-0.03,1.01
1.487304175311e+12,-0.09,-0.00,1.03
1.487304175807e+12,-0.08,0.04,1.00
1.487304176286e+12,-0.09,0.00,0.96
1.487304176799e+12,-0.06,-0.03,1.02
1.487304177293e+12,-0.09,0.02,1.05
1.487304177789e+12,-0.09,0.03,0.99
1.487304178287e+12,-0.10,-0.04,1.01
1.487304178782e+12,-0.06,-0.05,0.98
1.487304179278e+12,-0.09,0.01,1.04
1.487304179758e+12,-0.08,0.04,0.98
1.48730418027e+12,-0.08,-0.04,1.01
1.487304180749e+12,-0.06,-0.04,0.98
1.487304181245e+12,-0.10,0.04,1.00
1.487304181742e+12,-0.08,0.04,0.95
1.487304182238e+12,-0.06,-0.05,0.98
1.487304182733e+12,-0.10,0.02,1.02
1.48730418323e+12,-0.09,0.06,0.98
1.487304183723e+12,-0.09,-0.06,1.00
1.48730418422e+12,-0.05,-0.05,0.99
1.487304184716e+12,-0.08,0.03,1.01
1.487304185213e+12,-0.08,0.02,0.95
1.487304185695e+12,-0.06,-0.04,0.98
1.487304186187e+12,-0.09,0.04,1.04
1.487304186683e+12,-0.07,0.03,0.99
1.487304187179e+12,-0.11,-0.03,0.98
1.487304187676e+12,-0.07,0.01,0.97
1.487304188155e+12,-0.11,0.02,0.97
1.487304188652e+12,-0.05,0.01,1.00
1.487304189147e+12,-0.09,0.08,1.04
1.487304189659e+12,-0.09,0.07,1.01
1.487304190155e+12,-0.09,0.15,1.00
1.487304190636e+12,-0.07,0.15,0.99
1.487304191131e+12,-0.01,0.10,0.97
1.487304191627e+12,-0.10,0.09,1.00
1.487304192122e+12,-0.07,0.08,0.99
1.48730419262e+12,-0.11,0.12,1.04
1.487304193114e+12,-0.15,0.11,0.97
1.487304193595e+12,-0.15,0.13,0.96
1.487304194106e+12,-0.14,0.16,1.00
1.487304194602e+12,-0.20,0.08,1.02
1.487304195082e+12,-0.20,0.13,0.92
1.487304195594e+12,-0.18,0.12,1.02
1.487304196093e+12,-0.15,0.06,1.01
1.48730419657e+12,-0.10,0.12,0.98
1.487304197082e+12,-0.10,0.08,1.04
1.487304197563e+12,-0.08,0.10,0.95
1.487304198061e+12,-0.11,0.07,1.00
1.487304198569e+12,-0.08,0.11,1.00
1.487304199067e+12,-0.09,0.05,1.07
1.487304199562e+12,-0.11,0.10,1.01
1.48730420006e+12,-0.10,0.10,0.91
1.487304200537e+12,-0.11,0.08,0.99
1.487304201034e+12,-0.10,0.11,0.96
1.48730420153e+12,-0.07,0.01,1.02
1.487304202026e+12,-0.12,-0.00,1.05
1.487304202521e+12,-0.11,0.10,0.97
1.487304203018e+12,-0.08,0.07,0.93
1.487304203498e+12,-0.12,0.03,0.93
1.487304204012e+12,-0.12,-0.04,1.02
1.487304204489e+12,0.07,0.04,0.90
1.487304204986e+12,0.06,0.06,0.85
1.487304205465e+12,-0.06,-0.03,0.93
1.487304205978e+12,-0.10,-0.03,1.06
1.48730420646e+12,-0.10,-0.04,0.97
1.487304206953e+12,-0.02,-0.08,0.98
1.487304207449e+12,-0.13,-0.10,0.99
1.487304207928e+12,-0.14,-0.00,0.98
1.487304208426e+12,-0.11,-0.01,0.97
1.48730420892e+12,-0.21,-0.05,0.93
1.487304209418e+12,-0.13,-0.11,1.08
1.487304209922e+12,-0.16,-0.05,1.01
1.487304210435e+12,-0.08,-0.15,1.12
1.48730421092e+12,-0.12,-0.17,1.06
1.487304211417e+12,-0.05,-0.17,0.92
1.487304211897e+12,-0.03,-0.16,0.91
1.487304212409e+12,-0.06,-0.18,1.00
1.487304212904e+12,-0.10,-0.12,1.01
1.487304213399e+12,-0.10,-0.11,1.00
1.487304213897e+12,-0.07,-0.23,1.02
1.487304214392e+12,-0.08,-0.16,0.98
1.487304214888e+12,-0.13,-0.13,0.93
1.487304215384e+12,-0.15,-0.17,0.97
1.487304215881e+12,-0.17,-0.13,1.00
1.487304216377e+12,-0.19,-0.03,1.04
1.487304216872e+12,-0.24,-0.11,0.98
1.487304217352e+12,-0.20,-0.07,0.94
1.487304217847e+12,-0.23,-0.02,0.95
1.487304218344e+12,-0.24,-0.02,1.00
1.487304218843e+12,-0.27,-0.01,0.97
1.487304219335e+12,-0.29,0.01,0.98
1.487304219816e+12,-0.34,0.04,0.97
1.487304220313e+12,-0.25,0.03,0.95
1.487304220811e+12,-0.18,0.05,1.00
1.487304221303e+12,-0.16,0.06,1.02
1.4873042218e+12,-0.14,0.10,0.96
1.487304222296e+12,-0.15,0.06,1.06
1.487304222793e+12,-0.12,0.04,1.00
1.487304223287e+12,-0.10,-0.04,0.99
1.487304223783e+12,-0.11,-0.02,1.02
1.48730422428e+12,-0.09,-0.05,0.98
1.487304224777e+12,-0.06,-0.05,1.01
1.487304225271e+12,-0.11,-0.12,0.98
1.487304225767e+12,-0.13,-0.07,1.05
1.487304226279e+12,-0.14,-0.19,1.04
1.48730422676e+12,-0.11,-0.11,0.97
1.487304227254e+12,-0.15,0.01,1.01
1.487304227751e+12,-0.08,0.04,0.99
1.487304228248e+12,-0.16,0.07,0.99
1.487304228761e+12,-0.10,0.09,0.96
1.487304229239e+12,-0.10,0.09,1.01
1.487304229736e+12,-0.12,0.12,1.04
1.487304230231e+12,-0.08,0.13,0.92
1.487304230728e+12,-0.11,0.11,1.03
1.487304231209e+12,-0.09,0.12,0.96
1.48730423172e+12,-0.10,0.10,1.02
1.487304232216e+12,-0.11,0.07,1.01
1.487304232712e+12,-0.07,0.06,1.02
1.487304233208e+12,-0.08,0.12,0.94
1.487304233738e+12,-0.15,0.03,1.02
1.487304234199e+12,-0.14,-0.03,1.04
1.487304234695e+12,-0.11,0.03,1.04
1.487304235194e+12,-0.12,-0.08,0.92
1.487304235687e+12,-0.13,-0.14,0.98
1.487304236183e+12,-0.13,-0.17,0.97
1.487304236663e+12,-0.08,-0.20,0.95
1.48730423716e+12,-0.06,-0.21,0.98
1.487304237654e+12,-0.12,-0.21,1.02
1.487304238151e+12,-0.12,-0.16,1.04
1.487304238663e+12,-0.09,-0.17,1.01
1.487304239161e+12,-0.05,-0.11,0.96
1.487304239642e+12,-0.14,-0.08,0.98
1.48730424015e+12,-0.10,-0.03,1.02
1.487304240645e+12,-0.10,0.03,1.02
1.487304241129e+12,-0.09,0.04,0.99
1.487304241622e+12,-0.09,0.08,1.00
1.487304242118e+12,-0.12,0.08,0.97
1.487304242614e+12,-0.12,0.10,1.01
1.487304243111e+12,-0.09,0.10,0.98
1.487304243606e+12,-0.10,0.09,0.98
1.487304244085e+12,-0.09,0.05,0.96
1.487304244599e+12,-0.09,-0.02,1.01
1.487304245079e+12,-0.13,-0.02,0.96
1.487304245593e+12,-0.12,-0.01,1.03
1.487304246069e+12,-0.10,-0.05,0.97
1.487304246582e+12,-0.15,-0.05,1.05
1.487304247078e+12,-0.11,-0.12,1.01
1.487304247574e+12,-0.07,-0.09,0.96
1.487304248069e+12,-0.14,-0.10,1.00
1.487304248566e+12,-0.13,-0.09,1.04
1.487304249062e+12,-0.13,-0.06,0.98
1.487304249558e+12,-0.08,-0.07,0.97
1.487304250037e+12,-0.09,-0.02,0.96
1.487304250534e+12,-0.13,-0.00,1.04
1.48730425103e+12,-0.10,0.02,0.97
1.487304251529e+12,-0.10,0.15,0.98
1.487304252004e+12,-0.12,0.11,0.98
1.487304252502e+12,-0.06,0.12,0.96
1.487304252997e+12,-0.11,0.08,0.98
1.487304253477e+12,-0.09,0.09,0.98
1.487304253972e+12,-0.10,0.16,0.97
1.487304254469e+12,-0.02,0.16,0.97
1.487304254951e+12,-0.08,0.12,0.99
1.487304255445e+12,-0.11,0.10,1.00
1.487304255956e+12,-0.09,0.12,1.01
1.487304256436e+12,-0.10,0.05,0.97
1.487304256933e+12,-0.11,0.11,1.00
1.487304257445e+12,-0.11,0.05,1.02
1.487304257927e+12,-0.14,0.10,0.94
1.48730425842e+12,-0.11,0.07,0.98
1.487304258917e+12,-0.12,-0.01,0.99
1.487304259412e+12,-0.07,0.03,1.03
1.48730425991e+12,-0.08,0.03,1.01
1.487304260404e+12,-0.08,0.01,0.97
1.487304260901e+12,-0.06,-0.06,1.00
1.487304261348e+12,-0.12,0.00,1.00
1.487304261862e+12,-0.10,-0.06,1.04
1.487304262339e+12,-0.13,-0.09,0.97
1.487304262853e+12,-0.09,-0.03,1.02
1.487304263349e+12,-0.10,-0.02,1.00
1.487304263844e+12,-0.14,-0.14,1.02
1.487304264356e+12,-0.11,-0.09,1.04
1.487304264852e+12,-0.15,-0.17,1.01
1.487304265347e+12,-0.09,-0.17,0.94
1.487304265829e+12,-0.09,-0.19,0.99
1.487304266339e+12,-0.11,-0.13,1.03
1.487304266819e+12,-0.10,-0.06,0.97
1.487304267316e+12,-0.09,-0.06,0.97
1.487304267812e+12,-0.13,-0.01,1.01
1.487304268309e+12,-0.07,-0.02,0.98
1.487304268803e+12,-0.14,-0.01,1.00
1.487304269299e+12,-0.14,0.01,1.04
1.487304269813e+12,-0.11,0.03,1.04
1.487304270309e+12,-0.08,-0.04,1.00
1.487304270804e+12,-0.12,0.01,1.05
1.487304271299e+12,-0.07,0.02,1.01
1.487304271795e+12,-0.09,-0.01,0.96
1.487304272292e+12,-0.14,-0.05,0.99
1.487304272771e+12,-0.07,0.00,0.94
1.487304273267e+12,-0.12,0.06,0.95
1.487304273763e+12,-0.07,0.07,1.02
1.487304274261e+12,-0.08,0.04,1.00
1.487304274754e+12,-0.12,0.01,0.98
1.487304275235e+12,-0.10,-0.01,0.97
1.487304275729e+12,-0.05,-0.01,0.96
1.487304276227e+12,-0.08,-0.01,1.03
1.487304276722e+12,-0.13,0.00,1.00
1.487304277218e+12,-0.15,0.00,0.97
1.487304277715e+12,-0.15,-0.03,1.02
1.487304278212e+12,-0.07,-0.05,1.00
1.487304278722e+12,-0.14,-0.06,1.01
1.487304279203e+12,-0.10,-0.03,0.95
1.487304279714e+12,-0.14,-0.03,1.03
1.487304280195e+12,-0.10,-0.10,0.98
1.487304280706e+12,-0.13,-0.10,1.02
1.487304281185e+12,-0.15,-0.03,0.99
1.487304281681e+12,-0.13,-0.01,0.98
1.487304282179e+12,-0.11,0.00,0.97
1.487304282658e+12,-0.10,0.07,0.99
1.48730428317e+12,-0.09,0.12,1.02
1.487304283649e+12,-0.10,0.12,0.98
1.487304284145e+12,-0.10,0.09,1.02
1.487304284645e+12,-0.11,0.13,0.98
1.487304285137e+12,-0.12,0.10,0.97
1.487304285617e+12,-0.17,0.22,0.97
1.487304286114e+12,-0.19,0.15,0.99
1.487304286611e+12,-0.16,0.07,0.97
1.487304287105e+12,-0.18,0.11,1.03
1.487304287584e+12,-0.18,0.08,0.91
1.487304288081e+12,-0.14,0.08,0.98
1.487304288578e+12,-0.20,0.02,0.98
1.487304289076e+12,-0.14,0.03,1.06
1.487304289568e+12,-0.22,-0.07,0.98
1.487304290049e+12,-0.20,-0.01,0.96
1.487304290543e+12,-0.21,0.01,1.02
1.487304291042e+12,-0.20,-0.09,0.99
1.487304291535e+12,-0.07,0.03,1.03
1.487304292047e+12,-0.14,-0.07,1.08
1.487304292527e+12,-0.16,-0.02,0.93
1.487304293026e+12,-0.02,-0.01,1.04
1.48730429352e+12,-0.10,-0.04,0.97
1.487304294017e+12,0.01,-0.05,1.09
1.487304294512e+12,0.05,0.02,1.00
1.487304295008e+12,-0.02,-0.00,1.00
1.487304295504e+12,-0.02,-0.00,0.94
1.487304295985e+12,0.04,0.02,0.97
1.487304296481e+12,-0.10,0.00,1.10
1.487304296976e+12,0.02,0.09,0.96
1.487304297473e+12,0.01,-0.06,0.91
1.487304297966e+12,0.04,0.00,1.04
1.487304298464e+12,-0.04,0.03,1.04
1.487304298961e+12,-0.06,0.00,1.04
1.487304299458e+12,-0.03,-0.03,0.93
1.487304299951e+12,-0.05,0.01,1.02
1.487304300448e+12,-0.10,-0.06,1.05
1.487304300943e+12,-0.08,0.03,0.91
1.487304301439e+12,-0.16,-0.03,1.08
1.487304301935e+12,-0.11,0.06,0.91
1.487304302415e+12,-0.16,0.03,0.95
1.487304302911e+12,-0.13,0.03,1.01
1.48730430341e+12,-0.09,0.03,0.94
1.487304303902e+12,-0.09,0.07,0.94
1.487304304399e+12,-0.13,0.04,1.01
1.487304304895e+12,-0.10,0.05,0.98
1.487304305376e+12,-0.09,0.02,0.98
1.487304305871e+12,-0.09,-0.06,0.94
1.487304306368e+12,-0.08,-0.01,1.02
1.487304306862e+12,-0.15,-0.05,0.96
1.487304307358e+12,-0.06,-0.06,0.98
1.487304307853e+12,-0.14,-0.09,1.01
1.48730430835e+12,-0.09,-0.10,0.97
1.487304308831e+12,-0.17,-0.11,0.98
1.487304309327e+12,-0.12,-0.13,0.95
1.487304309824e+12,-0.12,-0.06,0.95
1.487304310302e+12,-0.18,-0.02,0.99
1.487304310798e+12,-0.08,0.05,0.99
1.487304311295e+12,-0.10,0.04,0.99
1.487304311792e+12,-0.16,0.05,1.06
1.487304312285e+12,-0.10,0.10,1.00
1.487304312782e+12,-0.12,0.08,0.96
1.487304313262e+12,-0.13,0.06,0.98
1.487304313759e+12,-0.09,-0.08,0.97
1.487304314253e+12,-0.17,-0.04,1.06
1.487304314749e+12,-0.13,-0.10,1.00
1.487304315246e+12,-0.05,-0.20,0.98
1.487304315743e+12,-0.08,-0.15,0.94
1.487304316236e+12,-0.07,-0.18,0.96
1.487304316718e+12,-0.11,-0.20,0.99
1.487304317231e+12,-0.13,-0.15,1.01
1.487304317726e+12,-0.13,-0.10,1.00
1.487304318223e+12,-0.18,-0.27,1.05
1.487304318719e+12,-0.03,-0.16,0.96
1.487304319197e+12,-0.07,-0.01,0.94
1.487304319692e+12,-0.13,0.00,1.04
1.487304320189e+12,-0.11,-0.05,0.97
1.487304320688e+12,-0.15,0.01,1.02
1.487304321182e+12,-0.14,-0.05,0.99
1.487304321677e+12,-0.13,-0.00,1.02
1.487304322174e+12,-0.11,-0.05,0.98
1.487304322669e+12,-0.10,0.01,1.00
1.487304323165e+12,-0.11,-0.04,0.99
1.487304323644e+12,-0.08,0.00,0.97
1.487304324158e+12,-0.08,-0.03,1.04
1.48730432464e+12,-0.09,0.03,0.96
1.487304325148e+12,-0.08,-0.03,1.04
1.487304325628e+12,-0.09,0.02,0.98
1.487304326126e+12,-0.10,-0.01,1.05
1.487304326619e+12,-0.07,0.07,0.95
1.487304327116e+12,-0.11,0.02,1.04
1.487304327565e+12,-0.08,0.00,0.98
1.487304328077e+12,-0.12,0.01,1.06
1.487304328574e+12,-0.12,-0.05,1.00
1.48730432907e+12,-0.11,-0.01,0.99
1.48730432955e+12,-0.07,-0.04,0.98
1.487304330046e+12,-0.09,-0.02,0.97
1.48730433054e+12,-0.12,-0.04,0.99
1.487304331021e+12,-0.08,-0.13,0.99
1.487304331517e+12,-0.10,-0.00,0.96
1.487304332011e+12,-0.10,0.01,1.05
1.487304332509e+12,-0.06,-0.05,0.97
1.487304333004e+12,-0.11,-0.00,1.04
1.4873043335e+12,-0.09,0.04,0.95
1.487304333997e+12,-0.10,-0.06,0.99
1.487304334492e+12,-0.09,-0.02,1.05
1.487304334988e+12,-0.11,0.02,1.00
1.487304335482e+12,-0.10,0.04,0.97
1.487304335965e+12,-0.08,-0.03,0.96
1.48730433646e+12,-0.12,0.02,1.00
1.487304336956e+12,-0.09,0.04,0.96
1.487304337451e+12,-0.08,-0.04,1.00
1.487304337948e+12,-0.07,-0.04,1.01
1.487304338458e+12,-0.10,0.01,1.03
1.487304338939e+12,-0.08,0.04,0.97
1.487304339435e+12,-0.11,-0.05,0.99
1.487304339933e+12,-0.08,-0.03,1.04
1.487304340427e+12,-0.11,0.03,1.00
1.487304340923e+12,-0.11,0.04,0.98
1.487304341418e+12,-0.10,-0.07,0.98
1.487304341916e+12,-0.09,-0.01,1.02
1.48730434241e+12,-0.10,0.01,1.01
1.487304342908e+12,-0.09,0.04,0.95
1.487304343404e+12,-0.09,-0.05,0.99
1.4873043439e+12,-0.10,-0.01,1.04
1.487304344396e+12,-0.09,0.02,0.96
1.487304344892e+12,-0.11,-0.05,1.00
1.487304345385e+12,-0.07,-0.04,1.01
1.487304345882e+12,-0.09,-0.02,1.04
1.487304346394e+12,-0.11,0.02,1.02
1.487304346875e+12,-0.09,0.03,0.95
1.487304347371e+12,-0.09,-0.06,0.99
1.487304347866e+12,-0.11,-0.01,1.02
1.487304348363e+12,-0.10,0.01,0.98
1.487304348859e+12,-0.12,-0.03,1.01
1.487304349353e+12,-0.08,-0.06,0.98
1.487304349802e+12,-0.10,0.00,0.95
1.487304350297e+12,-0.09,0.03,0.95
1.487304350778e+12,-0.08,-0.05,0.98
1.487304351291e+12,-0.12,-0.01,1.03
1.487304351769e+12,-0.09,0.02,0.96
1.487304352282e+12,-0.12,-0.03,1.00
1.487304352762e+12,-0.07,-0.05,0.99
1.48730435321e+12,-0.10,0.00,0.96
1.48730435371e+12,-0.09,0.02,0.96
1.487304354202e+12,-0.07,-0.05,0.99
1.487304354697e+12,-0.11,-0.00,1.01
1.487304355194e+12,-0.10,0.03,0.95
1.487304355676e+12,-0.09,-0.04,0.99
1.487304356186e+12,-0.12,-0.00,1.03
1.487304356665e+12,-0.09,0.04,0.96
1.487304357177e+12,-0.11,-0.03,1.01
1.487304357659e+12,-0.08,-0.06,0.99
1.487304358105e+12,-0.08,0.00,0.96
1.487304358601e+12,-0.10,0.02,0.96
1.487304359097e+12,-0.08,-0.05,0.99
1.487304359593e+12,-0.13,-0.00,1.02
1.487304360074e+12,-0.09,0.02,0.96
1.48730436057e+12,-0.09,-0.05,0.98
1.487304361064e+12,-0.10,-0.00,1.02
1.487304361561e+12,-0.09,0.03,0.96
1.487304362058e+12,-0.11,-0.04,1.01
1.487304362552e+12,-0.07,-0.04,0.99
1.487304362999e+12,-0.11,0.00,0.96
1.487304363496e+12,-0.09,0.03,0.96
1.487304363992e+12,-0.08,-0.04,0.97
1.48730436449e+12,-0.12,-0.01,1.02
1.487304364968e+12,-0.08,0.04,0.95
1.487304365463e+12,-0.09,-0.03,0.99
1.487304365976e+12,-0.12,-0.01,1.03
1.487304366457e+12,-0.10,0.01,0.99
1.487304366952e+12,-0.12,-0.03,1.01
1.487304367447e+12,-0.09,-0.05,0.98
1.487304367961e+12,-0.11,-0.01,1.03
1.48730436844e+12,-0.10,0.02,0.99
1.487304368934e+12,-0.11,-0.03,1.00
1.487304369431e+12,-0.08,-0.06,0.99
1.487304369927e+12,-0.11,-0.00,1.03
1.487304370425e+12,-0.07,0.01,0.94
1.487304370919e+12,-0.09,-0.06,0.98
1.487304371414e+12,-0.11,-0.01,1.03
1.487304371912e+12,-0.08,0.01,0.98
1.487304372408e+12,-0.11,-0.03,1.01
1.487304372903e+12,-0.10,-0.05,0.98
1.487304373398e+12,-0.11,-0.01,1.02
1.487304373895e+12,-0.09,0.03,0.97
1.48730437439e+12,-0.12,-0.04,1.00
1.487304374887e+12,-0.08,-0.06,0.99
1.487304375382e+12,-0.11,0.00,1.01
1.487304375863e+12,-0.09,0.03,0.95
1.487304376359e+12,-0.10,-0.05,0.98
1.487304376857e+12,-0.11,-0.00,1.02
1.48730437735e+12,-0.08,0.04,0.96
1.487304377847e+12,-0.09,-0.06,1.00
1.487304378343e+12,-0.09,-0.05,1.02
1.487304378854e+12,-0.10,-0.02,1.02
1.487304379334e+12,-0.10,0.01,0.99
1.487304379846e+12,-0.12,-0.02,1.01
1.487304380326e+12,-0.09,-0.05,0.98
1.487304380839e+12,-0.12,-0.01,1.03
1.487304381318e+12,-0.10,0.01,0.99
1.487304381831e+12,-0.11,-0.05,1.02
1.487304382309e+12,-0.08,-0.05,0.98
1.487304382825e+12,-0.11,-0.01,1.03
1.487304383302e+12,-0.09,0.03,0.98
1.487304383814e+12,-0.11,-0.04,1.01
1.487304384294e+12,-0.09,-0.07,0.98
1.48730438479e+12,-0.12,0.00,1.03
1.487304385286e+12,-0.08,0.05,0.95
1.487304385781e+12,-0.09,-0.05,0.99
1.487304386277e+12,-0.11,-0.02,1.04
1.487304386774e+12,-0.10,0.02,0.99
1.487304387268e+12,-0.12,-0.03,1.03
1.487304387764e+12,-0.09,-0.04,0.99
1.487304388262e+12,-0.11,-0.01,1.02
1.487304388758e+12,-0.08,0.02,0.98
1.487304389253e+12,-0.12,-0.03,1.02
1.487304389749e+12,-0.09,-0.05,0.98
1.487304390245e+12,-0.13,0.00,1.02
1.487304390742e+12,-0.08,0.04,0.96
1.487304391221e+12,-0.10,-0.04,0.98
1.487304391716e+12,-0.12,-0.00,1.04
1.487304392213e+12,-0.08,0.05,0.96
1.487304392709e+12,-0.10,-0.04,1.00
1.487304393208e+12,-0.09,-0.05,1.00
1.487304393717e+12,-0.12,-0.01,1.02
1.487304394213e+12,-0.11,0.01,1.00
1.487304394708e+12,-0.09,0.02,0.96
1.487304395192e+12,-0.09,-0.06,0.97
1.4873043957e+12,-0.12,-0.01,1.01
1.487304396181e+12,-0.10,0.03,0.97
1.487304396677e+12,-0.11,-0.04,1.00
1.487304397174e+12,-0.08,-0.05,0.98
1.487304397668e+12,-0.10,0.00,0.98
1.487304398165e+12,-0.10,-0.03,1.00
1.487304398662e+12,-0.08,-0.05,0.99
1.48730439914e+12,-0.12,0.01,0.99
1.487304399636e+12,-0.10,-0.02,0.99
1.487304400132e+12,-0.10,-0.04,1.03
1.487304400644e+12,-0.11,-0.01,1.03
1.487304401141e+12,-0.11,0.01,1.00
1.48730440162e+12,-0.09,0.04,0.95
1.487304402116e+12,-0.09,-0.06,0.98
1.487304402612e+12,-0.13,-0.01,1.02
1.487304403108e+12,-0.08,0.03,0.97
1.487304403606e+12,-0.09,-0.04,0.99
1.487304404099e+12,-0.13,-0.02,1.02
1.487304404596e+12,-0.11,0.01,1.00
1.487304405091e+12,-0.09,0.04,0.95
1.48730440559e+12,-0.09,-0.05,1.00
1.487304406083e+12,-0.10,-0.03,1.02
1.487304406594e+12,-0.12,-0.02,1.02
1.487304407075e+12,-0.09,0.02,0.99
1.487304407587e+12,-0.11,-0.03,1.02
1.487304408067e+12,-0.08,-0.05,0.99
1.487304408564e+12,-0.12,0.00,1.03
1.487304409058e+12,-0.09,0.05,0.95
1.487304409556e+12,-0.08,-0.06,0.99
1.48730441005e+12,-0.12,-0.02,1.02
1.487304410547e+12,-0.08,0.02,0.98
1.487304411043e+12,-0.10,-0.04,1.00
1.48730441154e+12,-0.08,-0.05,0.99
1.487304411986e+12,-0.12,0.00,0.97
1.487304412467e+12,-0.10,0.01,0.99
1.487304412963e+12,-0.08,-0.06,1.00
1.487304413474e+12,-0.12,-0.00,1.01
1.487304413954e+12,-0.09,0.03,0.98
1.48730441445e+12,-0.10,-0.02,1.00
1.487304414946e+12,-0.07,-0.06,0.99
1.487304415443e+12,-0.12,0.02,1.00
1.487304415939e+12,-0.08,0.02,0.95
1.487304416434e+12,-0.09,-0.04,0.99
1.487304416929e+12,-0.12,-0.00,1.02
1.487304417409e+12,-0.08,0.05,0.95
1.487304417908e+12,-0.09,-0.07,0.99
1.487304418402e+12,-0.12,-0.00,1.04
1.487304418898e+12,-0.09,0.03,0.98
1.487304419393e+12,-0.11,-0.05,1.00
1.48730441989e+12,-0.09,-0.06,0.97
1.487304420386e+12,-0.08,-0.00,0.96
1.487304420865e+12,-0.09,0.04,0.98
1.487304421362e+12,-0.09,0.04,0.97
1.48730442186e+12,-0.13,-0.04,0.99
1.48730442234e+12,-0.10,-0.05,0.99
1.487304422835e+12,-0.09,0.04,0.97
1.487304423329e+12,-0.13,-0.06,1.02
1.487304423825e+12,-0.09,-0.06,0.97
1.487304424325e+12,-0.13,-0.00,1.03
1.487304424817e+12,-0.08,0.07,0.95
1.487304425297e+12,-0.10,-0.07,0.98
1.48730442581e+12,-0.12,0.02,1.04
1.487304426291e+12,-0.07,0.06,0.98
1.4873044268e+12,-0.12,-0.07,1.02
1.48730442728e+12,-0.09,-0.08,0.98
1.487304427792e+12,-0.11,0.02,1.03
1.487304428272e+12,-0.08,0.06,0.97
1.48730442877e+12,-0.12,-0.08,1.01
1.487304429264e+12,-0.09,-0.06,0.99
1.48730442976e+12,-0.12,0.02,1.01
1.487304430258e+12,-0.06,0.06,0.96
1.487304430752e+12,-0.10,-0.06,1.00
1.487304431264e+12,-0.09,-0.03,1.02
1.487304431712e+12,-0.12,0.00,0.96
1.487304432192e+12,-0.09,-0.00,0.96
1.487304432689e+12,-0.11,0.09,1.01
1.487304433201e+12,-0.10,0.11,1.00
1.487304433696e+12,-0.11,0.03,1.02
1.487304434191e+12,-0.10,-0.02,1.04
1.487304434691e+12,-0.08,0.02,1.01
1.487304435184e+12,-0.09,-0.01,0.97
1.48730443568e+12,-0.11,-0.01,0.99
1.487304436177e+12,-0.10,-0.02,1.00
1.487304436672e+12,-0.11,0.02,0.97
1.487304437152e+12,-0.10,0.00,0.96
1.487304437648e+12,-0.09,-0.04,0.99
1.487304438144e+12,-0.11,-0.09,1.00
1.48730443864e+12,-0.12,-0.11,1.02
1.487304439151e+12,-0.11,-0.10,1.00
1.487304439631e+12,-0.10,-0.10,0.99
1.487304440144e+12,-0.10,0.02,1.03
1.487304440639e+12,-0.09,-0.01,1.04
1.487304441139e+12,-0.09,-0.00,1.04
1.487304441631e+12,-0.08,-0.02,1.03
1.487304442127e+12,-0.07,-0.02,1.02
1.487304442642e+12,-0.07,-0.02,1.01
1.487304443138e+12,-0.08,-0.03,1.00
1.487304443631e+12,-0.05,-0.03,1.00
1.487304444127e+12,-0.06,-0.03,0.99
1.487304444624e+12,-0.10,0.01,1.04
1.487304445119e+12,-0.09,0.09,1.04
1.487304445616e+12,-0.08,0.07,0.94
1.487304446111e+12,-0.12,0.00,1.05
1.487304446607e+12,-0.07,0.06,0.99
1.487304447087e+12,-0.09,0.02,0.94
1.487304447583e+12,-0.12,0.03,1.02
1.487304448095e+12,-0.09,0.01,1.03
1.487304448576e+12,-0.16,0.02,0.98
1.487304449071e+12,-0.12,0.07,0.96
1.487304449567e+12,-0.12,0.05,0.98
1.487304450047e+12,-0.15,0.02,0.96
1.487304450542e+12,-0.18,0.05,0.97
1.487304451039e+12,-0.28,0.04,1.06
1.487304451534e+12,-0.27,0.08,1.06
1.487304452031e+12,-0.23,0.10,1.04
1.487304452527e+12,-0.18,0.09,0.92
1.487304453023e+12,-0.22,0.09,1.04
1.487304453518e+12,-0.09,0.06,0.94
1.487304454015e+12,-0.15,0.06,0.99
1.487304454494e+12,-0.11,0.02,0.99
1.487304454991e+12,-0.16,0.09,1.00
1.487304455488e+12,-0.09,0.05,1.00
1.487304455982e+12,-0.05,0.03,0.96
1.487304456477e+12,-0.14,-0.01,0.97
1.487304456974e+12,-0.09,-0.03,0.98
1.487304457472e+12,-0.13,-0.01,1.02
1.487304457966e+12,-0.12,-0.03,0.96
1.487304458461e+12,-0.09,0.00,1.00
1.487304458942e+12,-0.13,-0.04,0.99
1.487304459439e+12,-0.16,0.01,1.03
1.487304459932e+12,-0.11,0.01,0.98
1.487304460429e+12,-0.22,-0.14,1.04
1.487304460941e+12,-0.11,-0.12,1.02
1.487304461439e+12,-0.17,-0.16,1.04
1.487304461934e+12,-0.14,-0.12,1.04
1.487304462429e+12,-0.14,-0.11,0.99
1.487304462924e+12,-0.15,-0.09,1.00
1.487304463422e+12,-0.13,-0.08,0.97
1.487304463917e+12,-0.15,-0.06,1.07
1.487304464414e+12,-0.12,-0.12,1.00
1.487304464925e+12,-0.12,-0.02,1.05
1.487304465405e+12,-0.09,0.00,0.99
1.487304465902e+12,-0.09,-0.05,1.02
1.487304466396e+12,-0.11,-0.00,0.97
1.487304466893e+12,-0.10,-0.01,0.95
1.487304467389e+12,-0.14,-0.07,1.05
1.487304467884e+12,-0.11,0.02,0.96
1.487304468381e+12,-0.11,-0.00,1.02
1.487304468877e+12,-0.12,-0.02,0.98
1.487304469358e+12,-0.10,0.05,0.94
1.487304469853e+12,-0.13,-0.00,1.05
1.487304470364e+12,-0.14,-0.03,1.00
1.487304470859e+12,-0.11,0.00,1.04
1.48730447134e+12,-0.11,-0.02,0.99
1.487304471837e+12,-0.09,0.06,0.94
1.487304472333e+12,-0.13,-0.03,1.05
1.487304472827e+12,-0.13,0.01,0.97
1.487304473324e+12,-0.11,0.00,1.00
1.487304473821e+12,-0.12,-0.01,0.98
1.487304474299e+12,-0.09,0.06,0.94
1.487304474799e+12,-0.11,-0.02,1.04
1.487304475292e+12,-0.11,0.03,0.95
1.48730447574e+12,-0.12,0.00,0.95
1.487304476239e+12,-0.15,-0.04,1.00
1.487304476747e+12,-0.11,-0.01,1.05
1.487304477228e+12,-0.12,-0.01,0.98
1.487304477675e+12,-0.11,0.00,0.96
1.487304478173e+12,-0.12,-0.02,0.98
1.487304478667e+12,-0.10,0.05,0.95
1.487304479163e+12,-0.11,-0.02,1.05
1.48730447966e+12,-0.11,0.04,0.94
1.487304480156e+12,-0.09,-0.01,1.04
1.487304480653e+12,-0.15,-0.03,1.00
1.487304481163e+12,-0.11,-0.01,1.04
1.487304481611e+12,-0.13,0.00,0.97
1.487304482107e+12,-0.12,-0.02,1.05
1.487304482605e+12,-0.13,-0.01,0.98
1.487304483083e+12,-0.10,0.02,0.98
1.487304483579e+12,-0.11,-0.01,1.00
1.487304484075e+12,-0.09,0.07,0.94
1.487304484572e+12,-0.11,-0.02,1.04
1.487304485068e+12,-0.11,0.05,0.94
1.487304485562e+12,-0.11,-0.00,1.04
1.487304486059e+12,-0.12,-0.03,1.00
1.487304486572e+12,-0.12,-0.02,1.05
1.487304487051e+12,-0.09,0.05,0.94
1.487304487563e+12,-0.11,-0.02,1.04
1.487304488042e+12,-0.12,0.01,0.96
1.487304488557e+12,-0.11,-0.01,1.03
1.487304489034e+12,-0.13,-0.02,0.98
1.48730448953e+12,-0.10,0.01,1.00
1.487304490026e+12,-0.12,-0.03,0.98
1.487304490525e+12,-0.08,0.03,0.99
1.487304491019e+12,-0.12,-0.03,1.02
1.487304491514e+12,-0.08,0.08,0.94
1.487304492012e+12,-0.12,-0.01,1.05
1.487304492507e+12,-0.09,0.02,0.95
1.487304493003e+12,-0.11,-0.00,1.03
1.487304493498e+12,-0.14,-0.03,1.00
1.487304493993e+12,-0.11,-0.01,1.04
1.48730449449e+12,-0.11,0.03,0.96
1.487304494988e+12,-0.12,-0.01,1.04
1.487304495481e+12,-0.12,0.00,0.97
1.487304495963e+12,-0.10,0.02,0.99
1.487304496458e+12,-0.12,-0.02,0.99
1.487304496956e+12,-0.08,0.10,0.94
1.48730449745e+12,-0.10,0.04,1.04
1.487304497945e+12,-0.09,0.15,0.99
1.487304498425e+12,-0.11,0.12,0.99
1.487304498922e+12,-0.09,0.14,1.00
1.487304499417e+12,-0.11,0.09,0.97
1.487304499914e+12,-0.10,-0.01,1.02
1.487304500409e+12,-0.16,-0.04,0.99
1.487304500906e+12,-0.07,-0.03,0.96
1.487304501404e+12,-0.12,0.06,1.00
1.487304501897e+12,-0.13,-0.06,0.98
1.487304502377e+12,-0.06,-0.03,0.94
1.487304502874e+12,-0.10,-0.10,0.95
1.487304503369e+12,-0.13,-0.09,1.01
1.487304503865e+12,-0.17,-0.05,0.99
1.487304504362e+12,-0.12,-0.03,1.01
1.487304504857e+12,-0.15,-0.06,0.98
1.487304505353e+12,-0.08,-0.03,0.97
1.487304505836e+12,-0.15,0.02,0.99
1.487304506329e+12,-0.13,-0.01,0.96
1.487304506824e+12,-0.05,-0.01,0.94
1.487304507322e+12,-0.13,-0.02,0.95
1.487304507802e+12,-0.10,-0.04,0.97
1.487304508296e+12,-0.15,-0.02,0.98
1.487304508792e+12,-0.15,-0.04,1.01
1.487304509289e+12,-0.12,-0.08,0.96
1.487304509783e+12,-0.15,0.00,0.96
1.487304510279e+12,-0.12,-0.01,1.05
1.487304510775e+12,-0.14,0.03,0.95
1.487304511271e+12,-0.12,-0.02,1.04
1.487304511752e+12,-0.13,0.06,0.94
1.487304512264e+12,-0.10,-0.02,1.06
1.487304512745e+12,-0.12,0.05,0.93
1.487304513256e+12,-0.11,-0.02,1.03
1.487304513739e+12,-0.09,0.07,0.95
1.487304514231e+12,-0.13,-0.02,0.99
1.487304514727e+12,-0.11,0.02,0.95
1.487304515226e+12,-0.12,-0.00,1.06
1.487304515722e+12,-0.12,0.03,0.93
1.487304516215e+12,-0.12,-0.00,1.06
1.487304516696e+12,-0.13,0.00,0.93
1.487304517191e+12,-0.13,0.03,1.04
1.487304517689e+12,-0.17,-0.02,0.98
1.487304518184e+12,-0.13,0.01,1.06
1.487304518679e+12,-0.17,-0.02,0.98
1.487304519175e+12,-0.11,0.03,1.04
1.48730451967e+12,-0.18,-0.00,0.96
1.487304520167e+12,-0.09,-0.00,1.08
1.487304520663e+12,-0.19,-0.01,0.98
1.487304521159e+12,-0.10,0.02,1.04
1.487304521638e+12,-0.19,-0.02,0.99
1.487304522151e+12,-0.11,0.02,1.06
1.487304522631e+12,-0.14,0.02,0.94
1.487304523127e+12,-0.11,0.02,1.07
1.487304523623e+12,-0.15,0.01,0.95
1.487304524121e+12,-0.11,0.00,1.07
1.487304524615e+12,-0.15,0.01,0.95
1.48730452511e+12,-0.12,0.02,1.05
1.487304525607e+12,-0.15,0.03,0.92
1.487304526104e+12,-0.11,-0.01,1.04
1.487304526598e+12,-0.09,0.04,0.92
1.487304527094e+12,-0.11,-0.01,1.01
1.487304527575e+12,-0.08,0.03,0.92
1.487304528087e+12,-0.13,-0.00,1.00
1.487304528566e+12,-0.09,0.03,0.92
1.487304529063e+12,-0.11,0.04,1.03
1.487304529559e+12,-0.13,0.12,0.98
1.487304530055e+12,-0.09,0.12,1.01
1.487304530551e+12,-0.10,0.16,0.95
1.487304531047e+12,-0.16,0.12,1.04
1.487304531543e+12,-0.07,0.04,0.99
1.48730453204e+12,-0.08,-0.01,1.02
1.487304532534e+12,-0.13,-0.03,0.95
1.487304533031e+12,-0.08,-0.02,1.05
1.487304533526e+12,-0.19,-0.11,1.01
1.487304534028e+12,-0.06,-0.08,0.92
1.487304534519e+12,-0.11,-0.11,0.99
1.487304535015e+12,-0.18,-0.07,0.97
1.48730453551e+12,-0.10,-0.06,1.04
1.487304535989e+12,-0.12,0.00,0.94
1.487304536503e+12,-0.11,-0.05,1.04
1.487304536981e+12,-0.14,0.01,0.93
1.487304537495e+12,-0.09,-0.03,1.04
1.487304537974e+12,-0.12,-0.03,0.96
1.487304538471e+12,-0.10,0.00,1.04
1.487304538967e+12,-0.14,-0.01,0.99
1.487304539462e+12,-0.11,-0.02,1.05
1.487304539959e+12,-0.07,0.03,0.97
1.487304540455e+12,-0.14,-0.12,1.00
1.487304540967e+12,-0.11,-0.09,1.04
1.487304541446e+12,-0.07,-0.01,0.94
1.487304541958e+12,-0.14,-0.05,1.02
1.487304542438e+12,-0.12,-0.07,0.99
1.487304542934e+12,-0.10,-0.01,0.97
1.48730454343e+12,-0.14,-0.04,1.05
1.487304543926e+12,-0.15,-0.05,0.98
1.487304544421e+12,-0.12,-0.04,1.03
1.487304544917e+12,-0.12,0.00,0.94
1.487304545413e+12,-0.13,-0.03,1.07
1.487304545912e+12,-0.12,-0.02,0.95
1.487304546406e+12,-0.12,-0.02,1.06
1.487304546902e+12,-0.11,-0.01,0.93
1.487304547398e+12,-0.11,-0.05,1.06
1.487304547892e+12,-0.11,0.02,0.95
1.48730454839e+12,-0.11,-0.05,1.04
1.487304548889e+12,-0.10,0.02,0.95
1.48730454938e+12,-0.11,-0.05,1.04
1.487304549828e+12,-0.08,0.00,0.97
1.487304550341e+12,-0.11,-0.05,1.00
1.487304550821e+12,-0.09,-0.02,0.99
1.487304551317e+12,-0.10,-0.04,0.98
1.487304551812e+12,-0.10,0.01,0.95
1.487304552309e+12,-0.09,-0.05,1.00
1.487304552805e+12,-0.09,0.01,0.96
1.4873045533e+12,-0.09,-0.04,1.00
1.48730455378e+12,-0.10,0.01,0.96
1.487304554292e+12,-0.10,-0.04,1.03
1.487304554774e+12,-0.11,0.03,0.94
1.487304555284e+12,-0.10,-0.04,1.01
1.487304555764e+12,-0.09,0.01,0.99
1.487304556277e+12,-0.10,-0.01,1.01
1.487304556724e+12,-0.09,0.00,0.94
1.487304557203e+12,-0.16,-0.06,0.99
1.4873045577e+12,-0.08,0.02,0.95
1.487304558196e+12,-0.09,-0.03,1.04
1.487304558691e+12,-0.10,0.02,0.96
1.487304559188e+12,-0.14,-0.10,1.05
1.487304559684e+12,-0.16,-0.01,0.97
1.48730456018e+12,-0.11,-0.03,1.01
1.487304560676e+12,-0.16,-0.03,0.97
1.487304561172e+12,-0.13,-0.03,1.02
1.487304561669e+12,-0.13,-0.02,0.96
1.487304562164e+12,-0.11,-0.04,1.04
1.48730456266e+12,-0.11,-0.00,0.96
1.487304563157e+12,-0.09,-0.06,1.04
1.487304563651e+12,-0.10,0.01,0.95
1.487304564146e+12,-0.10,-0.04,1.03
1.487304564646e+12,-0.09,0.02,0.96
1.487304565139e+12,-0.11,-0.04,1.04
1.487304565638e+12,-0.09,0.01,0.94
1.48730456613e+12,-0.10,-0.04,1.03
1.487304566628e+12,-0.09,0.00,0.96
1.487304567122e+12,-0.09,-0.05,1.04
1.487304567606e+12,-0.08,0.01,0.95
1.487304568115e+12,-0.08,-0.04,1.03
1.487304568595e+12,-0.08,0.00,0.95
1.487304569107e+12,-0.10,-0.03,1.04
1.487304569588e+12,-0.09,0.08,0.94
1.487304570083e+12,-0.11,0.05,0.98
1.487304570579e+12,-0.09,0.09,0.98
1.48730457106e+12,-0.08,0.08,0.99
1.487304571556e+12,-0.06,0.10,0.98
1.487304572051e+12,-0.01,0.04,0.96
1.487304572531e+12,0.05,0.17,0.94
1.487304573027e+12,-0.04,0.12,1.02
1.487304573539e+12,-0.18,0.04,1.03
1.48730457402e+12,-0.07,0.12,0.96
1.487304574513e+12,-0.13,0.12,0.95
1.48730457501e+12,-0.05,0.07,0.99
1.487304575491e+12,-0.19,0.09,0.96
1.487304575987e+12,-0.08,0.01,0.96
1.487304576484e+12,-0.15,0.11,0.99
1.487304576961e+12,-0.15,0.09,0.91
1.487304577459e+12,-0.15,0.03,1.16
1.487304577971e+12,-0.13,0.05,1.05
1.487304578449e+12,-0.02,0.06,0.79
1.487304578945e+12,-0.23,0.01,1.08
1.487304579442e+12,-0.16,0.04,0.87
1.487304579939e+12,-0.11,-0.00,1.02
1.487304580449e+12,-0.18,-0.04,1.03
1.48730458093e+12,-0.13,-0.15,0.94
1.487304581425e+12,-0.08,-0.08,0.85
1.487304581922e+12,-0.15,-0.01,1.04
1.48730458237e+12,0.00,-0.08,0.88
1.487304582883e+12,-0.03,-0.10,1.04
1.487304583362e+12,0.06,-0.19,0.83
1.487304583858e+12,-0.07,-0.15,0.94
1.487304584354e+12,-0.09,-0.16,1.09
1.48730458485e+12,-0.09,-0.18,1.04
1.487304585344e+12,-0.01,-0.10,0.93
1.48730458584e+12,-0.10,-0.17,1.10
1.487304586336e+12,-0.04,-0.14,0.90
1.487304586832e+12,-0.21,-0.12,1.06
1.487304587346e+12,-0.08,-0.20,1.07
1.48730458784e+12,-0.08,-0.10,1.06
1.487304588339e+12,-0.13,-0.11,1.01
1.487304588833e+12,-0.12,-0.16,0.97
1.487304589296e+12,-0.09,0.00,1.01
1.487304589776e+12,-0.00,-0.04,0.94
1.487304590288e+12,-0.10,-0.02,1.02
1.48730459077e+12,-0.11,-0.07,0.98
1.487304591264e+12,-0.04,-0.03,0.95
1.487304591761e+12,-0.11,-0.03,1.06
1.487304592259e+12,-0.08,-0.02,1.00
1.487304592769e+12,-0.09,-0.02,1.04
1.487304593249e+12,-0.07,-0.04,0.99
1.487304593759e+12,-0.08,-0.01,1.01
1.487304594256e+12,-0.12,-0.06,1.02
1.487304594754e+12,-0.08,-0.02,1.04
1.487304595248e+12,-0.08,-0.04,0.99
1.487304595745e+12,-0.09,-0.01,1.01
1.487304596257e+12,-0.11,-0.04,1.01
1.487304596704e+12,-0.09,0.00,0.96
1.487304597199e+12,-0.13,0.01,1.03
1.487304597695e+12,-0.11,0.03,1.04
1.487304598191e+12,-0.02,0.08,0.97
1.487304598687e+12,-0.11,0.14,1.01
1.487304599187e+12,-0.13,0.11,1.00
1.487304599679e+12,-0.11,0.09,1.01
1.487304600191e+12,-0.12,0.07,1.03
1.487304600687e+12,-0.24,0.10,1.00
1.487304601186e+12,-0.13,0.11,1.10
1.487304601679e+12,-0.20,0.07,0.87
1.48730460216e+12,-0.27,0.06,0.98
1.487304602655e+12,-0.22,0.08,1.01
1.487304603156e+12,-0.17,0.09,0.94
1.487304603647e+12,-0.22,0.11,1.05
1.487304604143e+12,-0.20,0.07,0.96
1.487304604639e+12,-0.17,0.05,0.98
1.48730460512e+12,-0.18,0.16,0.96
1.487304605615e+12,-0.17,0.11,1.06
1.487304606128e+12,-0.07,0.07,1.00
1.487304606607e+12,-0.09,0.10,0.98
1.487304607104e+12,-0.11,0.04,1.11
1.4873046076e+12,-0.11,0.09,0.95
1.487304608095e+12,-0.09,0.08,0.94
1.487304608592e+12,-0.05,0.03,1.06
1.487304609087e+12,-0.02,0.02,0.97
1.487304609567e+12,-0.04,0.05,0.89
1.487304610063e+12,-0.09,0.03,0.97
1.487304610558e+12,-0.02,-0.08,1.02
1.487304611071e+12,-0.06,-0.09,1.06
1.48730461157e+12,-0.09,-0.05,1.02
1.487304612061e+12,-0.02,-0.05,0.96
1.487304612558e+12,-0.05,-0.07,1.03
1.487304613054e+12,-0.07,-0.07,0.98
1.487304613537e+12,-0.15,-0.08,0.96
1.487304614046e+12,-0.08,-0.14,1.02
1.487304614542e+12,-0.14,-0.12,1.00
1.487304615039e+12,-0.17,-0.13,1.02
1.487304615536e+12,-0.15,-0.15,1.01
1.487304616046e+12,-0.16,-0.06,1.05
1.487304616526e+12,-0.08,-0.07,0.93
1.487304617021e+12,-0.11,-0.05,0.98
1.487304617535e+12,-0.13,-0.10,1.03
1.487304618029e+12,-0.11,-0.14,1.00
1.487304618525e+12,-0.11,-0.20,1.00
1.487304619023e+12,-0.11,-0.19,0.99
1.487304619519e+12,-0.13,-0.15,1.04
1.487304620014e+12,-0.08,-0.11,1.01
1.487304620509e+12,-0.12,-0.06,1.00
1.487304621006e+12,-0.09,-0.09,0.98
1.487304621502e+12,-0.07,0.01,1.00
1.487304621997e+12,-0.07,-0.01,0.96
1.487304622494e+12,-0.09,-0.06,1.01
1.487304623004e+12,-0.09,-0.03,1.01
1.487304623502e+12,-0.10,-0.06,1.03
1.487304623997e+12,-0.10,-0.04,1.02
1.487304624509e+12,-0.11,-0.05,1.04
1.487304625007e+12,-0.10,-0.01,1.02
1.487304625501e+12,-0.10,-0.02,1.03
1.487304625998e+12,-0.08,0.01,0.98
1.487304626476e+12,-0.08,0.00,0.98
1.487304626925e+12,-0.10,0.00,0.98
1.487304627421e+12,-0.08,-0.00,0.96
1.487304627902e+12,-0.08,0.01,0.98
1.487304628413e+12,-0.10,-0.00,1.01
1.487304628893e+12,-0.06,0.03,0.96
1.487304629404e+12,-0.08,-0.01,1.04
1.487304629901e+12,-0.11,-0.03,1.01
1.487304630396e+12,-0.08,-0.02,1.03
1.487304630892e+12,-0.06,0.03,0.97
1.487304631389e+12,-0.08,-0.02,1.04
1.487304631887e+12,-0.12,-0.03,1.01
1.487304632396e+12,-0.10,-0.01,1.04
1.487304632876e+12,-0.09,0.01,0.97
1.487304633389e+12,-0.08,-0.01,1.04
1.487304633886e+12,-0.12,-0.01,1.02
1.48730463438e+12,-0.09,-0.02,1.03
1.487304634876e+12,-0.09,-0.01,1.00
1.487304635389e+12,-0.11,-0.01,1.04
1.48730463587e+12,-0.07,0.01,0.97
1.487304636364e+12,-0.08,0.00,1.00
1.48730463686e+12,-0.08,-0.00,0.98
1.487304637355e+12,-0.11,-0.02,1.02
1.487304637853e+12,-0.10,-0.01,1.04
1.487304638346e+12,-0.10,-0.01,0.98
1.487304638846e+12,-0.07,-0.00,1.00
1.487304639339e+12,-0.12,-0.01,1.00
1.487304639838e+12,-0.07,0.00,0.98
1.487304640331e+12,-0.11,-0.01,1.01
1.487304640829e+12,-0.07,0.02,0.96
1.487304641324e+12,-0.07,-0.00,1.00
1.487304641804e+12,-0.10,0.00,0.99
1.487304642314e+12,-0.09,-0.01,1.01
1.487304642811e+12,-0.10,-0.02,1.04
1.487304643307e+12,-0.12,-0.02,1.02
1.48730464382e+12,-0.10,-0.02,1.04
1.487304644315e+12,-0.14,-0.04,1.01
1.487304644811e+12,-0.09,-0.02,1.03
1.487304645307e+12,-0.12,-0.03,1.01
1.48730464582e+12,-0.09,-0.01,1.04
1.487304646314e+12,-0.11,-0.02,1.01
1.48730464681e+12,-0.10,-0.02,1.04
1.487304647322e+12,-0.12,-0.02,1.01
1.487304647818e+12,-0.10,-0.02,1.05
1.487304648316e+12,-0.12,-0.03,1.01
1.487304648827e+12,-0.09,-0.01,1.04
1.487304649305e+12,-0.09,-0.00,0.98
1.487304649802e+12,-0.05,0.04,0.97
1.487304650252e+12,-0.11,0.00,0.96
1.487304650745e+12,-0.11,-0.03,1.01
1.487304651241e+12,-0.10,-0.01,1.04
1.487304651752e+12,-0.12,-0.03,1.03
1.487304652252e+12,-0.09,-0.01,1.04
1.487304652744e+12,-0.13,-0.02,1.00
1.487304653241e+12,-0.07,0.01,0.97
1.487304653689e+12,-0.11,0.00,0.96
1.487304654186e+12,-0.11,-0.02,1.01
1.487304654699e+12,-0.10,-0.01,1.04
1.487304655192e+12,-0.12,-0.03,1.01
1.48730465569e+12,-0.10,-0.02,1.04
1.487304656185e+12,-0.11,-0.03,1.02
1.487304656697e+12,-0.11,-0.01,1.04
1.487304657195e+12,-0.11,-0.03,1.02
1.487304657689e+12,-0.11,-0.00,1.04
1.487304658199e+12,-0.12,-0.03,1.03
1.487304658697e+12,-0.09,-0.01,1.04
1.487304659192e+12,-0.11,-0.04,1.02
1.487304659688e+12,-0.08,-0.02,1.04
1.487304660199e+12,-0.09,-0.02,1.01
1.487304660697e+12,-0.10,-0.02,1.04
1.487304661191e+12,-0.08,-0.01,0.98
1.48730466164e+12,-0.09,0.00,0.95
1.487304662121e+12,-0.08,0.04,0.97
1.487304662615e+12,-0.07,0.06,0.96
1.487304663113e+12,-0.09,0.06,0.93
1.487304663608e+12,-0.11,0.12,1.00
1.487304664103e+12,-0.09,0.13,0.96
1.487304664599e+12,-0.08,0.11,1.02
1.487304665097e+12,-0.11,0.08,1.00
1.487304665591e+12,-0.12,-0.00,1.01
1.487304666087e+12,-0.08,-0.03,1.05
1.487304666601e+12,-0.06,-0.02,1.00
1.487304667081e+12,-0.09,-0.02,0.95
1.487304667591e+12,-0.07,-0.03,1.00
1.487304668087e+12,-0.09,-0.02,1.04
1.487304668582e+12,-0.09,-0.05,0.96
1.487304669066e+12,-0.04,-0.09,0.98
1.487304669575e+12,-0.12,-0.11,1.03
1.487304670055e+12,-0.14,-0.09,0.98
1.487304670566e+12,-0.12,-0.09,1.02
1.487304671064e+12,-0.09,-0.03,1.00
1.487304671559e+12,-0.09,-0.03,0.99
1.48730467204e+12,-0.06,0.02,0.95
1.487304672551e+12,-0.08,-0.02,1.04
1.487304673032e+12,-0.07,0.06,0.94
1.487304673542e+12,-0.11,-0.01,1.04
1.487304674025e+12,-0.08,0.06,0.94
1.487304674518e+12,-0.08,-0.02,1.05
1.487304675014e+12,-0.07,0.05,0.94
1.487304675511e+12,-0.10,-0.02,1.06
1.487304676006e+12,-0.09,0.02,0.95
1.487304676502e+12,-0.12,-0.01,1.05
1.487304676999e+12,-0.08,0.02,0.96
1.487304677496e+12,-0.11,0.00,1.04
1.48730467799e+12,-0.12,-0.02,0.98
1.487304678486e+12,-0.09,0.01,1.04
1.487304678982e+12,-0.12,-0.02,1.00
1.48730467948e+12,-0.10,-0.02,1.06
1.487304679974e+12,-0.07,0.05,0.93
1.48730468047e+12,-0.08,-0.02,1.05
1.487304680967e+12,-0.04,0.06,0.94
1.487304681463e+12,-0.09,-0.02,1.05
1.487304681959e+12,-0.07,0.06,0.94
1.487304682454e+12,-0.10,-0.02,1.06
1.48730468295e+12,-0.09,0.03,0.96
1.487304683446e+12,-0.11,-0.01,1.06
1.487304683942e+12,-0.07,0.04,0.96
1.487304684438e+12,-0.11,-0.01,1.06
1.487304684933e+12,-0.09,0.02,0.97
1.487304685429e+12,-0.11,-0.00,1.05
1.487304685909e+12,-0.11,0.00,0.99
1.487304686422e+12,-0.10,0.01,1.03
1.487304686902e+12,-0.11,-0.01,0.97
1.487304687414e+12,-0.10,0.01,1.04
1.487304687892e+12,-0.10,0.05,0.99
1.48730468839e+12,-0.09,0.07,1.02
1.487304688901e+12,-0.11,0.19,1.00
1.487304689398e+12,-0.13,0.12,1.01
1.48730468988e+12,-0.08,0.12,0.98
1.487304690389e+12,-0.07,0.06,1.01
1.48730469087e+12,-0.02,0.11,0.94
1.48730469138e+12,-0.02,0.04,1.02
1.487304691863e+12,0.01,0.10,0.92
1.487304692356e+12,0.03,0.02,1.00
1.487304692822e+12,0.09,0.00,1.04
1.487304693317e+12,0.03,-0.00,1.00
1.487304693813e+12,0.04,0.01,1.03
1.487304694309e+12,0.01,0.07,1.00
1.487304694804e+12,0.02,0.04,1.04
1.487304695301e+12,-0.04,0.05,0.98
1.487304695749e+12,0.00,0.02,1.00
1.487304696247e+12,0.01,0.00,1.05
1.48730469674e+12,-0.01,0.03,0.99
1.48730469722e+12,0.00,0.02,0.99
1.487304697716e+12,-0.03,0.03,1.01
1.487304698213e+12,0.02,0.03,0.91
1.487304698708e+12,-0.03,0.09,1.03
1.487304699204e+12,-0.03,0.07,0.97
1.4873046997e+12,-0.07,0.05,1.04
1.487304700196e+12,-0.11,0.01,1.10
1.487304700692e+12,-0.15,0.01,1.00
1.487304701187e+12,-0.17,0.05,1.02
1.487304701699e+12,-0.17,0.13,1.04
1.48730470218e+12,-0.15,0.01,0.92
1.487304702675e+12,-0.18,-0.11,1.19
1.487304703187e+12,-0.06,-0.01,1.08
1.487304703666e+12,-0.00,-0.06,0.89
1.487304704164e+12,-0.07,0.02,0.81
1.487304704663e+12,-0.07,-0.07,1.15
1.487304705156e+12,-0.01,-0.14,0.86
1.487304705651e+12,-0.07,-0.02,0.97
1.487304706148e+12,-0.16,-0.13,1.05
1.487304706646e+12,-0.10,-0.07,0.95
1.487304707122e+12,-0.06,-0.07,0.95
1.487304707637e+12,-0.06,-0.06,1.05
1.487304708114e+12,-0.07,-0.12,0.95
1.487304708629e+12,-0.06,-0.17,1.02
1.487304709122e+12,-0.15,-0.14,1.03
1.487304709622e+12,-0.15,-0.14,1.04
1.487304710115e+12,-0.09,-0.17,0.98
1.487304710612e+12,-0.02,-0.08,0.91
1.487304711091e+12,-0.12,-0.13,0.99
1.487304711588e+12,-0.15,-0.12,0.98
1.487304712082e+12,-0.07,-0.09,0.97
1.48730471258e+12,-0.15,-0.09,1.10
1.487304713075e+12,-0.13,-0.16,1.00
1.48730471357e+12,-0.10,-0.09,0.99
1.487304714066e+12,-0.11,-0.09,1.02
1.487304714578e+12,-0.15,-0.03,1.06
1.487304715074e+12,-0.11,-0.06,1.00
1.48730471557e+12,-0.13,0.00,1.15
1.487304716066e+12,-0.13,-0.01,1.02
1.487304716562e+12,-0.12,-0.02,1.04
1.487304717059e+12,-0.14,-0.02,0.99
1.487304717555e+12,-0.12,0.01,1.00
1.48730471805e+12,-0.12,-0.01,0.98
1.487304718547e+12,-0.09,0.04,0.93
1.487304719042e+12,-0.12,-0.03,1.05
1.487304719539e+12,-0.12,-0.00,0.97
1.487304720035e+12,-0.11,0.01,1.02
1.487304720531e+12,-0.13,-0.03,1.00
1.487304721031e+12,-0.13,0.00,1.04
1.487304721531e+12,-0.13,-0.02,0.99
1.487304722003e+12,-0.08,0.05,0.93
1.487304722514e+12,-0.12,-0.01,1.05
1.487304722996e+12,-0.11,0.01,0.98
1.487304723489e+12,-0.12,0.00,1.03
1.487304724013e+12,-0.13,-0.02,1.00
1.487304724502e+12,-0.12,-0.00,1.04
1.487304724996e+12,-0.13,-0.01,1.01
1.487304725489e+12,-0.12,-0.02,1.04
1.487304725986e+12,-0.10,0.00,0.97
1.48730472648e+12,-0.11,0.02,1.00
1.487304726979e+12,-0.10,-0.02,1.00
1.487304727482e+12,-0.11,0.01,1.02
1.487304727969e+12,-0.12,-0.01,0.99
1.487304728468e+12,-0.12,0.00,1.02
1.487304728963e+12,-0.11,-0.02,1.00
1.487304729457e+12,-0.11,0.02,1.00
1.487304729955e+12,-0.12,-0.02,0.98
1.487304730449e+12,-0.07,0.04,0.95
1.487304730946e+12,-0.12,-0.03,1.03
1.487304731443e+12,-0.09,0.03,0.95
1.487304731937e+12,-0.09,-0.05,1.04
1.487304732433e+12,-0.11,0.03,0.97
1.487304732929e+12,-0.12,-0.00,1.05
1.487304733424e+12,-0.12,-0.02,1.00
1.487304733921e+12,-0.11,-0.00,1.05
1.487304734417e+12,-0.12,-0.01,0.99
1.487304734913e+12,-0.12,0.02,1.02
1.487304735408e+12,-0.11,-0.02,1.00
1.48730473592e+12,-0.10,0.01,1.02
1.487304736401e+12,-0.10,-0.02,0.99
1.487304736896e+12,-0.07,0.05,0.93
1.487304737395e+12,-0.11,-0.04,1.05
1.487304737888e+12,-0.11,0.01,0.98
1.487304738384e+12,-0.09,0.02,1.00
1.48730473888e+12,-0.10,-0.02,0.99
1.48730473936e+12,-0.07,0.05,0.94
1.487304739872e+12,-0.12,-0.02,1.05
1.487304740368e+12,-0.13,-0.01,1.00
1.487304740865e+12,-0.12,-0.03,1.05
1.48730474136e+12,-0.11,0.02,0.97
1.487304741855e+12,-0.12,0.00,1.03
1.48730474235e+12,-0.11,-0.02,1.00
1.487304742847e+12,-0.10,0.01,1.00
1.487304743346e+12,-0.10,-0.01,0.99
1.48730474384e+12,-0.08,0.05,0.93
1.487304744334e+12,-0.12,-0.03,1.05
1.487304744831e+12,-0.11,-0.01,0.98
1.487304745314e+12,-0.11,0.02,0.99
1.487304745807e+12,-0.09,-0.04,0.98
1.487304746303e+12,-0.11,-0.01,0.99
1.4873047468e+12,-0.11,0.01,1.02
1.487304747294e+12,-0.11,-0.02,1.00
1.487304747791e+12,-0.12,0.00,1.03
1.487304748286e+12,-0.11,-0.01,0.98
1.487304748782e+12,-0.07,0.04,0.95
1.487304749279e+12,-0.11,-0.04,1.04
1.487304749761e+12,-0.08,0.03,0.96
1.487304750271e+12,-0.12,0.00,1.03
1.48730475075e+12,-0.11,-0.01,0.99
1.487304751246e+12,-0.07,0.05,0.93
1.487304751745e+12,-0.10,-0.04,1.06
1.487304752238e+12,-0.11,-0.00,0.99
1.487304752736e+12,-0.10,0.02,1.00
1.487304753231e+12,-0.10,-0.01,0.98
1.48730475371e+12,-0.07,0.05,0.96
1.487304754221e+12,-0.13,-0.03,1.07
1.487304754718e+12,-0.11,-0.01,1.00
1.487304755214e+12,-0.10,-0.04,1.06
1.487304755711e+12,-0.10,0.00,0.99
1.487304756191e+12,-0.10,0.02,0.99
1.487304756686e+12,-0.08,-0.05,0.99
1.487304757182e+12,-0.11,-0.01,0.99
1.48730475768e+12,-0.11,0.01,1.02
1.487304758174e+12,-0.12,-0.01,0.99
1.487304758653e+12,-0.06,0.04,0.94
1.487304759149e+12,-0.09,-0.01,1.07
1.487304759645e+12,-0.09,-0.00,0.97
1.487304760142e+12,-0.08,0.02,1.03
1.487304760637e+12,-0.12,-0.00,1.00
1.487304761133e+12,-0.05,0.01,0.97
1.487304761629e+12,-0.10,-0.04,1.02
1.487304762128e+12,-0.08,0.02,0.93
1.487304762624e+12,-0.11,-0.00,1.07
1.487304763117e+12,-0.12,-0.04,1.00
1.487304763612e+12,-0.11,0.00,1.08
1.487304764111e+12,-0.12,-0.02,1.00
1.48730476462e+12,-0.09,0.01,1.04
1.487304765118e+12,-0.12,-0.02,1.01
1.487304765613e+12,-0.10,0.00,1.05
1.487304766111e+12,-0.15,-0.03,0.99
1.487304766589e+12,-0.07,0.01,0.92
1.487304767101e+12,-0.10,-0.03,1.07
1.487304767581e+12,-0.12,-0.02,0.99
1.487304768078e+12,-0.08,0.00,0.98
1.487304768573e+12,-0.10,-0.01,1.02
1.487304769069e+12,-0.05,-0.00,0.98
1.487304769565e+12,-0.09,0.02,1.04
1.48730477006e+12,-0.08,-0.03,1.01
1.487304770557e+12,-0.08,0.02,1.01
1.487304771054e+12,-0.09,0.01,0.98
1.487304771548e+12,-0.09,0.01,0.94
1.487304772046e+12,-0.10,0.03,1.05
1.48730477254e+12,-0.11,-0.02,1.01
1.487304773036e+12,-0.09,0.02,1.08
1.487304773549e+12,-0.11,-0.02,1.01
1.487304774048e+12,-0.10,0.02,1.06
1.487304774544e+12,-0.11,-0.00,1.01
1.487304775039e+12,-0.11,0.03,1.03
1.487304775534e+12,-0.10,0.00,1.00
1.48730477603e+12,-0.05,0.01,0.97
1.487304776525e+12,-0.10,-0.03,1.06
1.487304777023e+12,-0.13,-0.03,1.00
1.487304777533e+12,-0.08,0.01,1.06
1.487304778013e+12,-0.11,-0.02,0.99
1.487304778508e+12,-0.08,0.01,1.00
1.487304779006e+12,-0.08,-0.00,0.98
1.487304779502e+12,-0.09,-0.01,0.95
1.487304779997e+12,-0.10,0.00,1.02
1.487304780476e+12,-0.06,-0.01,0.97
1.487304780972e+12,-0.10,0.00,0.96
1.487304781452e+12,-0.07,0.00,0.99
1.487304781966e+12,-0.10,-0.00,1.06
1.487304782443e+12,-0.13,-0.01,0.99
1.48730478294e+12,-0.05,0.02,0.98
1.487304783436e+12,-0.10,0.00,1.04
1.487304783932e+12,-0.12,-0.01,0.99
1.487304784413e+12,-0.08,0.01,0.99
1.487304784924e+12,-0.09,-0.01,1.03
1.487304785403e+12,-0.07,0.02,0.95
1.487304785852e+12,-0.11,0.00,0.93
1.487304786363e+12,-0.09,-0.02,1.00
1.487304786843e+12,-0.06,0.01,0.98
1.487304787343e+12,-0.11,-0.01,1.02
1.487304787836e+12,-0.08,0.00,0.96
1.487304788331e+12,-0.12,0.02,0.99
1.487304788812e+12,-0.06,-0.02,0.99
1.487304789268e+12,-0.10,0.00,0.98
1.487304789771e+12,-0.11,-0.01,1.04
1.487304790252e+12,-0.09,0.01,0.95
1.487304790763e+12,-0.12,-0.00,1.04
1.487304791261e+12,-0.11,-0.02,1.01
1.487304791756e+12,-0.12,0.02,1.03
1.487304792251e+12,-0.13,-0.02,1.00
1.487304792746e+12,-0.11,0.01,1.02
1.487304793244e+12,-0.11,-0.03,0.99
1.48730479374e+12,-0.05,0.02,0.96
1.487304794186e+12,-0.13,0.00,0.97
1.487304794682e+12,-0.13,-0.03,1.00
1.487304795179e+12,-0.12,0.01,1.02
1.487304795675e+12,-0.13,-0.04,0.98
1.487304796175e+12,-0.05,0.02,0.96
1.487304796669e+12,-0.12,-0.02,1.05
1.487304797115e+12,-0.10,0.00,0.98
1.48730479761e+12,-0.11,0.01,1.02
1.48730479811e+12,-0.12,-0.03,1.00
1.487304798618e+12,-0.13,-0.00,1.06
1.4873047991e+12,-0.15,-0.03,0.98
1.487304799594e+12,-0.06,0.00,0.96
1.48730480009e+12,-0.10,0.00,1.03
1.487304800586e+12,-0.12,-0.01,1.00
1.487304801083e+12,-0.11,0.02,1.06
1.48730480158e+12,-0.13,-0.01,0.99
1.487304802027e+12,-0.05,0.00,0.93
1.487304802522e+12,-0.11,-0.02,0.98
1.487304803003e+12,-0.09,0.01,0.93
1.487304803516e+12,-0.09,0.01,1.05
1.487304804011e+12,-0.12,-0.03,1.00
1.487304804506e+12,-0.08,0.01,1.09
1.487304805002e+12,-0.10,-0.03,1.01
1.487304805516e+12,-0.08,0.01,1.08
1.48730480601e+12,-0.11,-0.04,1.01
1.487304806506e+12,-0.09,0.01,1.09
1.487304807003e+12,-0.12,-0.01,1.00
1.487304807497e+12,-0.08,0.02,1.08
1.487304808011e+12,-0.11,-0.02,1.02
1.487304808505e+12,-0.09,0.02,1.09
1.487304809003e+12,-0.12,-0.02,1.00
1.487304809498e+12,-0.08,0.10,1.06
1.487304810009e+12,-0.12,0.03,1.02
1.48730481049e+12,-0.03,0.13,0.97
1.487304810986e+12,-0.09,0.16,0.96
1.487304811481e+12,-0.10,0.13,1.01
1.487304811976e+12,-0.11,0.11,0.95
1.487304812457e+12,-0.12,0.11,0.98
1.487304812953e+12,-0.16,0.14,0.98
1.487304813451e+12,-0.06,0.11,0.97
1.487304813929e+12,-0.12,0.09,0.94
1.487304814428e+12,-0.07,0.05,0.95
1.487304814922e+12,-0.12,0.06,1.01
1.487304815417e+12,-0.13,0.04,0.94
1.487304815897e+12,-0.05,0.09,0.94
1.487304816411e+12,-0.18,0.03,1.04
1.487304816889e+12,-0.07,0.02,0.84
1.487304817386e+12,-0.06,-0.00,1.19
1.487304817881e+12,-0.05,-0.08,0.90
1.487304818378e+12,-0.19,-0.12,0.95
1.487304818872e+12,-0.11,-0.09,1.08
1.487304819369e+12,-0.12,-0.09,0.96
1.487304819865e+12,-0.17,-0.11,1.01
1.48730482036e+12,-0.09,-0.04,0.95
1.487304820856e+12,-0.13,-0.06,1.01
1.487304821353e+12,-0.08,0.01,1.01
1.48730482185e+12,-0.02,0.03,0.98
1.487304822346e+12,-0.05,-0.05,1.04
1.48730482284e+12,-0.02,-0.00,1.04
1.487304823337e+12,-0.06,-0.15,0.97
1.487304823834e+12,-0.04,-0.14,1.04
1.487304824345e+12,-0.09,-0.10,1.00
1.487304824824e+12,-0.07,-0.16,0.98
1.487304825335e+12,-0.09,-0.14,1.01
1.487304825833e+12,-0.08,-0.12,1.03
1.487304826329e+12,-0.04,-0.12,1.03
1.487304826829e+12,-0.06,-0.08,0.99
1.487304827319e+12,-0.09,-0.09,1.06
1.487304827815e+12,-0.03,0.01,1.00
1.487304828328e+12,-0.08,-0.06,1.02
1.487304828823e+12,-0.06,-0.02,1.04
1.48730482932e+12,-0.08,0.00,1.05
1.487304829815e+12,-0.07,0.03,1.03
1.487304830311e+12,-0.07,0.00,1.02
1.487304830808e+12,-0.00,0.13,0.97
1.487304831303e+12,-0.08,0.03,1.03
1.4873048318e+12,-0.12,-0.01,1.02
1.487304832302e+12,-0.03,0.03,0.98
1.48730483279e+12,-0.02,0.03,1.00
1.487304833286e+12,-0.08,-0.06,0.99
1.487304833765e+12,-0.01,0.01,0.97
1.487304834279e+12,-0.09,-0.03,1.01
1.487304834759e+12,-0.08,-0.03,0.98
1.487304835271e+12,-0.08,0.01,1.07
1.487304835767e+12,-0.08,0.10,1.01
1.487304836262e+12,-0.08,0.13,1.02
1.487304836758e+12,-0.04,0.12,1.02
1.487304837255e+12,-0.06,0.06,1.06
1.48730483775e+12,-0.06,0.11,0.96
1.487304838247e+12,-0.02,0.10,0.98
1.487304838743e+12,-0.06,0.02,1.04
1.487304839237e+12,-0.04,-0.02,1.00
1.487304839735e+12,-0.01,0.04,0.98
1.487304840228e+12,-0.04,0.10,1.00
1.487304840726e+12,-0.07,0.03,1.03
1.487304841221e+12,-0.03,0.02,0.97
1.487304841702e+12,-0.02,0.00,0.93
1.487304842196e+12,-0.05,0.01,0.92
1.487304842695e+12,-0.10,-0.02,1.00
1.487304843188e+12,-0.12,0.02,1.06
1.487304843686e+12,-0.08,-0.00,1.02
1.487304844181e+12,-0.06,-0.03,1.00
1.487304844695e+12,-0.13,-0.02,1.00
1.487304845176e+12,-0.07,-0.05,0.94
1.487304845685e+12,-0.07,-0.11,1.04
1.487304846164e+12,-0.06,-0.07,0.96
1.487304846661e+12,-0.05,-0.11,0.98
1.487304847157e+12,-0.03,-0.02,1.02
1.487304847668e+12,-0.09,-0.18,1.00
1.487304848153e+12,-0.06,-0.25,0.94
1.487304848663e+12,-0.07,-0.16,1.07
1.487304849158e+12,-0.06,-0.09,1.00
1.487304849637e+12,-0.01,-0.10,0.98
1.487304850149e+12,-0.08,-0.14,1.02
1.487304850644e+12,-0.07,-0.12,1.02
1.487304851141e+12,-0.08,-0.07,1.04
1.487304851637e+12,-0.05,-0.04,1.00
1.487304852132e+12,-0.06,0.01,0.97
1.487304852629e+12,-0.08,-0.05,0.97
1.487304853127e+12,-0.05,0.03,1.01
1.48730485362e+12,-0.04,0.02,0.97
1.487304854116e+12,-0.08,-0.04,1.00
1.487304854613e+12,-0.09,-0.03,1.01
1.487304855107e+12,-0.04,0.03,1.03
1.487304855605e+12,-0.04,0.04,0.97
1.487304856101e+12,-0.09,-0.08,1.00
1.487304856596e+12,-0.04,-0.04,0.99
1.487304857093e+12,-0.06,0.03,1.00
1.487304857588e+12,-0.04,0.02,0.98
1.487304858068e+12,-0.06,-0.07,0.98
1.48730485858e+12,-0.08,0.03,1.03
1.48730485906e+12,-0.03,0.04,0.96
1.487304859555e+12,-0.08,-0.09,0.99
1.487304860052e+12,-0.09,-0.00,1.03
1.487304860547e+12,-0.04,0.03,0.98
1.487304861045e+12,-0.08,-0.04,1.01
1.487304861538e+12,-0.06,-0.05,0.98
1.487304862034e+12,-0.08,0.01,1.03
1.487304862531e+12,-0.03,0.04,0.96
1.487304863028e+12,-0.08,-0.05,1.00
1.487304863526e+12,-0.08,-0.06,1.02
1.487304864019e+12,-0.06,0.07,0.98
1.487304864499e+12,-0.14,0.07,0.97
1.487304864996e+12,-0.07,0.05,0.97
1.487304865492e+12,-0.10,-0.00,0.94
1.487304865971e+12,-0.11,-0.04,0.99
1.487304866468e+12,-0.11,0.02,1.05
1.487304866964e+12,-0.03,-0.02,0.95
1.487304867459e+12,-0.07,-0.02,1.03
1.48730486797e+12,-0.02,0.10,1.00
1.487304868451e+12,-0.13,0.13,0.97
1.487304868946e+12,-0.10,0.09,1.02
1.487304869442e+12,-0.10,0.11,0.99
1.487304869941e+12,-0.08,0.07,1.00
1.487304870436e+12,-0.07,0.14,1.02
1.487304870947e+12,-0.15,0.10,1.03
1.487304871442e+12,-0.16,0.14,1.07
1.487304871938e+12,-0.14,0.05,1.03
1.487304872435e+12,-0.02,-0.02,1.00
1.48730487293e+12,-0.07,0.03,0.93
1.487304873416e+12,-0.03,0.03,0.98
1.487304873923e+12,-0.05,-0.07,1.00
1.487304874418e+12,-0.11,-0.08,1.06
1.487304874913e+12,-0.07,-0.04,1.03
1.487304875426e+12,-0.06,-0.08,1.04
1.487304875876e+12,-0.03,0.00,1.00
1.48730487637e+12,-0.06,0.01,1.02
1.487304876881e+12,-0.07,-0.13,1.03
1.487304877378e+12,-0.17,-0.11,1.03
1.487304877874e+12,-0.10,-0.12,1.00
1.487304878369e+12,-0.08,-0.11,1.02
1.487304878881e+12,-0.10,-0.14,1.02
1.487304879361e+12,-0.03,-0.11,0.94
1.487304879875e+12,-0.01,-0.11,1.00
1.487304880354e+12,-0.01,-0.08,0.94
1.487304880852e+12,-0.07,-0.13,0.94
1.487304881346e+12,-0.11,-0.12,0.98
1.487304881842e+12,-0.10,-0.09,1.05
1.487304882337e+12,-0.06,-0.12,1.02
1.487304882848e+12,-0.10,-0.17,1.02
1.487304883345e+12,-0.14,-0.10,1.04
1.487304883842e+12,-0.08,-0.13,1.00
1.487304884336e+12,-0.13,-0.02,0.99
1.487304884833e+12,-0.07,-0.04,1.00
1.487304885329e+12,-0.09,-0.00,0.96
1.487304885825e+12,-0.08,-0.04,1.04
1.487304886304e+12,-0.06,0.03,0.94
1.487304886816e+12,-0.08,-0.04,1.06
1.487304887296e+12,-0.06,0.00,0.97
1.48730488781e+12,-0.11,-0.04,1.05
1.487304888288e+12,-0.07,-0.03,0.99
1.4873048888e+12,-0.12,-0.02,1.04
1.487304889297e+12,-0.07,-0.06,1.00
1.487304889793e+12,-0.11,-0.03,1.06
1.487304890288e+12,-0.08,-0.04,0.99
1.487304890784e+12,-0.13,-0.01,1.00
1.487304891281e+12,-0.07,-0.05,0.99
1.487304891761e+12,-0.09,-0.00,0.96
1.487304892276e+12,-0.08,-0.04,1.05
1.487304892753e+12,-0.06,0.01,0.95
1.487304893248e+12,-0.10,-0.01,1.07
1.487304893745e+12,-0.05,-0.02,0.97
1.487304894242e+12,-0.12,-0.04,1.07
1.487304894751e+12,-0.07,-0.05,1.00
1.487304895248e+12,-0.10,-0.03,1.05
1.487304895753e+12,-0.06,0.01,0.95
1.487304896251e+12,-0.10,-0.03,1.05
1.487304896747e+12,-0.06,-0.04,0.99
1.487304897232e+12,-0.13,-0.02,1.02
1.487304897727e+12,-0.08,-0.06,0.98
1.487304898217e+12,-0.09,-0.01,0.97
1.487304898719e+12,-0.05,-0.04,1.01
1.487304899168e+12,-0.07,0.00,1.00
1.487304899664e+12,-0.07,-0.05,1.00
1.487304900175e+12,-0.11,-0.00,1.01
1.487304900671e+12,-0.08,-0.06,1.00
1.487304901167e+12,-0.11,-0.02,1.05
1.487304901665e+12,-0.08,-0.03,0.99
1.48730490216e+12,-0.12,-0.03,1.07
1.487304902667e+12,-0.06,-0.00,0.98
1.487304903152e+12,-0.12,-0.02,1.06
1.487304903646e+12,-0.07,-0.04,0.98
1.487304904144e+12,-0.13,-0.01,1.03
1.48730490464e+12,-0.07,-0.05,0.99
1.487304905135e+12,-0.13,-0.01,1.03
1.487304905631e+12,-0.09,-0.06,0.99
1.487304906127e+12,-0.11,0.02,1.01
1.487304906623e+12,-0.09,-0.06,0.99
1.48730490712e+12,-0.11,-0.01,1.01
1.487304907615e+12,-0.10,-0.05,0.98
1.487304908111e+12,-0.10,-0.02,1.04
1.48730490861e+12,-0.11,-0.06,0.99
1.487304909086e+12,-0.11,-0.02,0.98
1.487304909582e+12,-0.08,-0.04,0.98
1.487304910079e+12,-0.06,-0.00,0.96
1.487304910574e+12,-0.13,-0.03,1.06
1.48730491107e+12,-0.08,-0.06,1.03
1.487304911567e+12,-0.09,-0.02,1.06
1.487304912062e+12,-0.08,-0.01,0.96
1.487304912558e+12,-0.10,-0.01,1.07
1.487304913055e+12,-0.07,-0.03,0.98
1.487304913551e+12,-0.11,-0.03,1.09
1.487304914062e+12,-0.08,-0.05,1.02
1.487304914561e+12,-0.07,-0.04,1.07
1.487304915054e+12,-0.08,-0.01,0.97
1.48730491555e+12,-0.11,-0.04,1.06
1.487304916045e+12,-0.09,-0.05,0.99
1.487304916545e+12,-0.12,-0.01,1.01
1.487304917042e+12,-0.09,-0.07,0.99
1.487304917534e+12,-0.10,-0.01,0.99
1.487304918032e+12,-0.04,-0.03,1.00
1.487304918511e+12,-0.08,0.01,0.93
1.487304919026e+12,-0.09,-0.03,1.07
1.487304919502e+12,-0.08,0.01,0.98
1.487304920014e+12,-0.11,-0.01,1.06
1.487304920509e+12,-0.11,-0.06,1.00
1.487304921007e+12,-0.10,-0.03,1.07
1.487304921501e+12,-0.09,-0.04,0.98
1.487304921997e+12,-0.11,-0.02,1.05
1.487304922494e+12,-0.09,-0.05,0.98
1.48730492299e+12,-0.12,-0.02,1.00
1.487304923486e+12,-0.08,-0.06,0.99
1.487304923965e+12,-0.08,0.02,0.95
1.487304924479e+12,-0.06,-0.03,1.05
1.487304924958e+12,-0.07,0.01,0.95
1.487304925469e+12,-0.12,-0.03,1.06
1.487304925983e+12,-0.08,-0.05,0.99
1.487304926462e+12,-0.11,-0.01,1.01
1.487304926942e+12,-0.10,-0.06,0.99
1.487304927437e+12,-0.09,0.00,0.96
1.487304927933e+12,-0.07,-0.03,1.05
1.487304928381e+12,-0.07,0.00,0.98
1.487304928877e+12,-0.07,-0.04,1.04
1.487304929374e+12,-0.07,0.01,0.96
1.487304929871e+12,-0.10,-0.04,1.05
1.487304930365e+12,-0.09,-0.04,0.99
1.487304930861e+12,-0.11,-0.01,1.01
1.487304931376e+12,-0.09,-0.06,1.00
1.487304931887e+12,-0.11,-0.04,1.06
1.487304932366e+12,-0.08,-0.04,0.99
1.487304932859e+12,-0.11,-0.00,1.02
1.487304933357e+12,-0.09,-0.06,1.00
1.487304933852e+12,-0.11,-0.02,1.05
1.48730493435e+12,-0.09,-0.04,0.99
1.487304934844e+12,-0.12,-0.01,1.01
1.487304935342e+12,-0.09,-0.07,0.99
1.487304935835e+12,-0.10,-0.00,0.97
1.487304936334e+12,-0.06,-0.03,1.02
1.487304936827e+12,-0.07,0.01,0.95
1.487304937325e+12,-0.06,-0.03,1.06
1.487304937804e+12,-0.08,-0.00,0.96
1.487304938316e+12,-0.12,-0.02,1.04
1.487304938796e+12,-0.09,-0.06,0.99
1.487304939308e+12,-0.11,-0.01,1.01
1.487304939804e+12,-0.08,-0.05,1.00
1.487304940299e+12,-0.10,-0.05,1.05
1.487304940796e+12,-0.06,0.01,0.96
1.487304941292e+12,-0.11,-0.03,1.05
1.487304941787e+12,-0.08,-0.05,0.99
1.487304942285e+12,-0.12,-0.01,1.02
1.487304942779e+12,-0.09,-0.06,0.99
1.487304943275e+12,-0.09,0.00,0.97
1.487304943772e+12,-0.07,-0.01,1.02
1.48730494425e+12,-0.05,0.07,0.94
1.487304944762e+12,-0.08,0.04,1.04
1.487304945242e+12,-0.05,0.02,0.99
1.487304945739e+12,-0.06,0.11,0.93
1.487304946235e+12,-0.04,0.08,0.98
1.487304946714e+12,-0.06,0.08,0.99
1.487304947211e+12,-0.07,0.11,0.96
1.487304947707e+12,-0.10,0.08,0.99
1.487304948202e+12,-0.08,0.08,1.07
1.487304948684e+12,-0.09,0.08,0.99
1.487304949181e+12,-0.05,0.07,0.96
1.487304949674e+12,-0.05,0.09,1.01
1.487304950171e+12,-0.07,0.02,1.02
1.487304950684e+12,-0.08,0.07,1.00
1.487304951163e+12,-0.01,-0.00,0.96
1.48730495166e+12,-0.10,-0.01,0.99
1.487304952139e+12,-0.05,0.11,0.94
1.487304952635e+12,-0.03,0.03,0.96
1.487304953131e+12,-0.15,0.04,1.03
1.487304953628e+12,0.00,0.03,1.06
1.487304954125e+12,-0.00,-0.03,0.86
1.487304954619e+12,-0.05,0.16,1.02
1.487304955116e+12,-0.07,0.04,0.95
1.487304955595e+12,-0.08,0.06,0.99
1.487304956107e+12,-0.03,0.10,1.01
1.487304956602e+12,-0.10,-0.01,1.07
1.487304957099e+12,-0.03,-0.02,1.08
1.487304957595e+12,-0.14,-0.06,0.91
1.487304958093e+12,-0.06,-0.02,1.02
1.487304958586e+12,-0.10,-0.02,0.99
1.487304959083e+12,-0.15,-0.02,0.92
1.487304959579e+12,-0.10,-0.06,1.03
1.487304960076e+12,-0.09,-0.07,0.98
1.487304960554e+12,-0.14,-0.06,0.94
1.487304961067e+12,-0.13,-0.14,1.05
1.487304961564e+12,-0.13,-0.18,1.02
1.48730496206e+12,-0.08,-0.09,0.92
1.487304962538e+12,-0.09,-0.11,0.97
1.487304963052e+12,-0.09,-0.16,1.05
1.48730496353e+12,-0.07,-0.12,0.94
1.487304964029e+12,-0.09,-0.06,0.95
1.487304964524e+12,-0.09,-0.07,0.92
1.48730496502e+12,-0.08,-0.02,0.91
1.487304965513e+12,-0.13,-0.02,1.03
1.487304966011e+12,-0.10,-0.05,0.96
1.487304966493e+12,-0.13,-0.00,0.98
1.487304966985e+12,-0.09,0.02,0.99
1.487304967466e+12,-0.12,0.02,0.94
1.487304967962e+12,-0.11,0.00,1.07
1.487304968458e+12,-0.09,-0.01,0.98
1.487304968953e+12,-0.12,0.01,0.96
1.48730496945e+12,-0.12,-0.05,1.01
1.487304969946e+12,-0.11,0.06,0.98
1.487304970442e+12,-0.05,0.08,1.00
1.487304970938e+12,-0.08,0.10,1.00
1.487304971434e+12,-0.06,0.10,0.97
1.48730497193e+12,-0.10,0.08,1.06
1.487304972426e+12,-0.09,0.05,0.95
1.487304972904e+12,-0.09,0.07,0.96
1.487304973402e+12,-0.02,0.06,0.97
1.487304973897e+12,-0.13,0.01,1.08
1.487304974393e+12,-0.07,-0.01,0.95
1.48730497489e+12,-0.08,-0.06,1.06
1.487304975386e+12,-0.16,-0.03,0.95
1.487304975882e+12,-0.08,-0.04,1.02
1.487304976376e+12,-0.11,-0.00,0.98
1.487304976858e+12,-0.07,0.00,0.97
1.487304977354e+12,-0.08,-0.01,0.98
1.487304977849e+12,-0.14,0.01,1.00
1.487304978297e+12,-0.12,0.00,1.00
1.487304978809e+12,-0.16,-0.07,1.04
1.487304979304e+12,-0.07,-0.01,1.00
1.4873049798e+12,-0.10,-0.07,0.98
1.487304980297e+12,-0.10,-0.04,1.04
1.487304980793e+12,-0.07,-0.05,1.06
1.487304981307e+12,-0.05,-0.09,1.03
1.487304981801e+12,-0.07,-0.06,1.04
1.487304982296e+12,-0.06,-0.05,0.96
1.487304982793e+12,-0.08,-0.09,1.04
1.487304983291e+12,-0.09,-0.13,0.97
1.487304983784e+12,-0.07,-0.08,1.00
1.48730498428e+12,-0.06,-0.12,1.01
1.487304984776e+12,-0.10,-0.12,1.03
1.487304985272e+12,-0.11,-0.05,0.99
1.487304985768e+12,-0.09,-0.07,1.07
1.487304986286e+12,-0.07,-0.10,1.03
1.487304986777e+12,-0.12,-0.08,1.01
1.487304987273e+12,-0.10,-0.01,0.97
1.487304987768e+12,-0.08,-0.08,0.97
1.487304988249e+12,-0.06,0.01,0.94
1.487304988744e+12,-0.11,-0.07,1.07
1.487304989257e+12,-0.08,-0.09,1.04
1.487304989752e+12,-0.13,-0.05,1.04
1.487304990248e+12,-0.08,-0.05,1.01
1.48730499076e+12,-0.10,-0.01,1.07
1.487304991241e+12,-0.11,-0.03,0.98
1.487304991752e+12,-0.11,0.01,1.00
1.487304992232e+12,-0.07,-0.02,0.97
1.487304992727e+12,-0.07,0.03,0.94
1.487304993226e+12,-0.09,-0.02,1.08
1.48730499372e+12,-0.09,-0.03,1.00
1.487304994231e+12,-0.09,-0.01,1.05
1.487304994711e+12,-0.08,0.01,0.97
1.487304995224e+12,-0.10,-0.01,1.06
1.487304995702e+12,-0.10,-0.03,0.99
1.487304996215e+12,-0.10,0.01,1.02
1.487304996695e+12,-0.09,-0.03,0.99
1.487304997192e+12,-0.06,0.04,0.92
1.487304997686e+12,-0.09,-0.01,1.05
1.487304998183e+12,-0.11,0.01,0.96
1.487304998678e+12,-0.09,0.01,1.05
1.487304999175e+12,-0.10,-0.05,1.01
1.487304999686e+12,-0.08,-0.02,1.07
1.487305000182e+12,-0.10,-0.02,1.01
1.487305000679e+12,-0.08,-0.02,1.05
1.487305001174e+12,-0.08,-0.00,0.98
1.48730500167e+12,-0.11,0.00,1.02
1.487305002166e+12,-0.08,-0.05,0.98
1.487305002647e+12,-0.07,0.04,0.91
1.487305003142e+12,-0.08,-0.02,1.05
1.487305003638e+12,-0.08,0.01,0.97
1.487305004134e+12,-0.10,-0.00,1.08
1.48730500463e+12,-0.09,0.04,1.01
1.487305005143e+12,-0.11,0.07,1.05
1.487305005638e+12,-0.06,0.02,1.00
1.487305006117e+12,-0.06,0.07,0.93
1.48730500663e+12,-0.09,0.01,1.05
1.487305007111e+12,-0.10,0.04,0.95
1.487305007607e+12,-0.03,0.10,1.00
1.487305008102e+12,-0.11,0.10,0.96
1.487305008598e+12,-0.11,0.07,0.99
1.487305009093e+12,-0.11,0.03,1.09
1.487305009592e+12,-0.05,0.12,0.94
1.487305010085e+12,-0.04,0.07,1.00
1.48730501058e+12,-0.01,0.10,0.93
1.48730501106e+12,-0.07,0.10,0.95
1.487305011556e+12,-0.07,0.03,1.03
1.487305012069e+12,-0.14,0.03,1.00
1.48730501255e+12,-0.06,0.02,0.97
1.487305013044e+12,-0.10,0.07,0.96
1.487305013541e+12,-0.09,0.04,1.01
1.487305014039e+12,-0.06,0.05,1.03
1.487305014531e+12,-0.12,0.06,1.02
1.487305015027e+12,-0.05,0.11,0.97
1.487305015523e+12,-0.11,0.04,0.99
1.48730501602e+12,-0.12,-0.04,1.05
1.487305016516e+12,-0.11,-0.01,1.02
1.487305017027e+12,-0.11,-0.01,1.06
1.487305017525e+12,-0.11,-0.00,1.02
1.487305018021e+12,-0.10,-0.02,1.02
1.487305018517e+12,-0.08,0.05,0.95
1.487305018996e+12,-0.10,0.03,0.92
1.487305019492e+12,-0.08,0.03,0.97
1.487305019989e+12,-0.08,-0.03,1.00
1.487305020499e+12,-0.14,-0.03,1.02
1.487305020979e+12,-0.11,-0.00,0.98
1.487305021491e+12,-0.07,-0.07,1.02
1.48730502199e+12,-0.11,-0.02,1.05
1.487305022483e+12,-0.09,-0.01,1.00
1.487305022979e+12,-0.12,-0.02,1.00
1.487305023477e+12,-0.08,-0.09,1.04
1.48730502399e+12,-0.08,-0.14,1.05
1.487305024468e+12,-0.10,-0.03,0.99
1.487305024979e+12,-0.14,-0.03,1.08
1.487305025475e+12,-0.10,-0.03,1.08
1.487305025972e+12,-0.08,0.02,1.04
1.487305026467e+12,-0.12,-0.05,0.98
1.487305026962e+12,-0.04,0.01,0.99
1.48730502746e+12,-0.10,-0.03,1.00
1.487305027939e+12,-0.08,-0.00,0.95
1.487305028388e+12,-0.09,0.00,0.92
1.487305028882e+12,-0.08,-0.07,0.96
1.487305029379e+12,-0.15,-0.09,1.01
1.487305029891e+12,-0.14,-0.04,1.04
1.487305030369e+12,-0.11,-0.11,0.99
1.487305030866e+12,-0.07,-0.14,0.98
1.487305031363e+12,-0.12,-0.09,0.99
1.487305031859e+12,-0.10,-0.03,0.96
1.487305032338e+12,-0.15,-0.09,0.97
1.487305032849e+12,-0.12,-0.07,1.06
1.487305033347e+12,-0.08,-0.11,1.02
1.487305033842e+12,-0.12,-0.10,0.98
1.487305034339e+12,-0.07,-0.12,1.00
1.487305034834e+12,-0.11,-0.07,0.96
1.48730503533e+12,-0.14,-0.08,1.06
1.487305035827e+12,-0.12,-0.14,1.00
1.487305036322e+12,-0.10,-0.08,0.96
1.487305036818e+12,-0.11,-0.08,0.99
1.487305037315e+12,-0.14,-0.06,1.02
1.48730503781e+12,-0.08,-0.12,0.96
1.487305038307e+12,-0.10,-0.12,1.00
1.487305038802e+12,-0.13,0.03,1.06
1.487305039298e+12,-0.12,-0.05,0.99
1.487305039745e+12,-0.12,0.00,0.94
1.487305040242e+12,-0.08,-0.04,0.97
1.487305040723e+12,-0.11,-0.01,0.94
1.487305041234e+12,-0.12,-0.03,1.04
1.487305041734e+12,-0.12,-0.06,1.02
1.487305042226e+12,-0.11,-0.01,1.06
1.48730504274e+12,-0.11,-0.06,1.02
1.487305043233e+12,-0.12,-0.02,1.03
1.48730504373e+12,-0.11,-0.05,1.01
1.487305044241e+12,-0.11,-0.02,1.01
1.487305044724e+12,-0.07,-0.06,0.98
1.487305045219e+12,-0.07,0.01,0.96
1.487305045713e+12,-0.11,-0.04,1.07
1.48730504621e+12,-0.12,-0.05,1.00
1.487305046722e+12,-0.12,-0.03,1.06
1.487305047217e+12,-0.11,-0.07,1.01
1.487305047713e+12,-0.12,-0.03,1.05
1.487305048209e+12,-0.10,-0.03,0.99
1.487305048705e+12,-0.12,-0.00,1.02
1.487305049201e+12,-0.08,-0.05,0.98
1.487305049665e+12,-0.10,0.00,1.02
1.487305050145e+12,-0.05,-0.04,0.96
1.487305050642e+12,-0.12,-0.03,0.99
1.487305051091e+12,-0.12,0.00,0.94
1.487305051601e+12,-0.10,-0.06,1.02
1.487305052096e+12,-0.10,-0.00,1.00
1.487305052577e+12,-0.07,-0.04,0.97
1.487305053073e+12,-0.11,-0.02,0.96
1.487305053571e+12,-0.12,-0.00,1.04
1.487305054064e+12,-0.08,-0.05,0.99
1.487305054529e+12,-0.10,0.00,1.01
1.487305055009e+12,-0.05,-0.04,0.96
1.48730505552e+12,-0.11,-0.05,1.00
1.487305056016e+12,-0.12,-0.03,1.07
1.487305056513e+12,-0.11,-0.08,1.01
1.487305057009e+12,-0.11,-0.01,1.08
1.48730505752e+12,-0.11,-0.07,1.02
1.487305058017e+12,-0.12,-0.01,1.05
1.487305058512e+12,-0.11,-0.07,1.01
1.487305059024e+12,-0.12,-0.02,1.06
1.487305059522e+12,-0.09,-0.07,1.02
1.487305060016e+12,-0.13,-0.00,1.05
1.487305060512e+12,-0.10,-0.06,0.99
1.487305060992e+12,-0.07,0.01,0.93
1.487305061505e+12,-0.12,-0.03,1.04
1.487305061999e+12,-0.11,-0.06,1.01
1.487305062496e+12,-0.11,-0.01,1.04
1.487305062992e+12,-0.10,-0.05,0.99
1.487305063488e+12,-0.10,-0.02,0.96
1.487305063984e+12,-0.11,0.01,1.01
1.48730506448e+12,-0.10,-0.01,0.99
1.487305064959e+12,-0.21,-0.02,0.99
1.487305065458e+12,-0.09,-0.04,0.97
1.487305065952e+12,-0.05,-0.02,1.00
1.487305066447e+12,-0.10,0.01,0.94
1.487305066942e+12,-0.05,-0.01,1.12
1.487305067456e+12,-0.10,-0.08,1.01
1.487305067951e+12,-0.09,-0.02,1.11
1.487305068447e+12,-0.10,-0.01,1.00
1.487305068942e+12,-0.04,-0.01,0.97
1.48730506944e+12,-0.06,-0.08,1.07
1.487305069934e+12,-0.13,-0.02,0.95
1.48730507043e+12,-0.03,-0.01,1.00
1.487305070927e+12,-0.11,-0.01,1.01
1.487305071422e+12,-0.05,-0.00,0.94
1.487305071922e+12,-0.05,-0.01,1.05
1.487305072414e+12,-0.12,-0.03,1.02
1.487305072928e+12,-0.05,-0.00,1.02
1.487305073407e+12,-0.08,-0.01,0.99
1.487305073903e+12,-0.10,-0.00,0.94
1.487305074382e+12,-0.06,0.00,0.99
1.487305074895e+12,-0.06,-0.03,1.04
1.487305075374e+12,-0.10,-0.03,0.94
1.487305075889e+12,-0.05,-0.02,1.00
1.487305076366e+12,-0.08,0.01,0.99
1.487305076862e+12,-0.09,-0.06,0.96
1.487305077357e+12,-0.05,0.01,0.96
1.487305077839e+12,-0.06,-0.03,0.97
1.48730507835e+12,-0.07,-0.03,1.02
1.48730507883e+12,-0.09,0.00,0.98
1.487305079325e+12,-0.05,-0.01,1.05
1.487305079823e+12,-0.09,-0.00,0.95
1.487305080317e+12,-0.13,0.01,0.96
1.487305080814e+12,-0.08,-0.02,1.08
1.48730508131e+12,-0.09,-0.04,0.96
1.487305081789e+12,-0.09,0.00,0.98
1.48730508229e+12,-0.06,-0.01,1.04
1.487305082781e+12,-0.08,-0.02,0.96
1.487305083277e+12,-0.09,-0.00,0.98
1.487305083773e+12,-0.04,-0.03,1.01
1.487305084273e+12,-0.08,-0.01,0.96
1.487305084749e+12,-0.07,-0.00,0.99
1.487305085245e+12,-0.05,-0.02,1.04
1.487305085742e+12,-0.12,-0.00,0.96
1.487305086237e+12,-0.08,0.00,0.97
1.487305086733e+12,-0.06,-0.01,1.05
1.487305087228e+12,-0.08,-0.04,0.98
1.48730508771e+12,-0.10,0.00,0.96
1.487305088157e+12,-0.05,0.00,0.95
1.487305088655e+12,-0.07,-0.04,1.02
1.487305089165e+12,-0.07,-0.00,1.02
1.487305089645e+12,-0.06,-0.00,0.99
1.487305090141e+12,-0.08,-0.02,0.96
1.487305090622e+12,-0.05,-0.00,0.98
1.487305091133e+12,-0.05,-0.04,1.06
1.487305091613e+12,-0.09,-0.02,0.96
1.487305092109e+12,-0.10,-0.00,0.97
1.487305092605e+12,-0.05,-0.01,1.07
1.4873050931e+12,-0.09,-0.03,0.97
1.487305093597e+12,-0.12,0.01,0.94
1.487305094094e+12,-0.06,-0.01,1.05
1.48730509459e+12,-0.09,-0.04,0.99
1.487305095068e+12,-0.10,0.02,0.96
1.487305095581e+12,-0.05,0.01,1.07
1.487305096076e+12,-0.09,-0.00,1.00
1.487305096556e+12,-0.05,0.05,0.97
1.487305097071e+12,-0.05,0.01,1.06
1.487305097563e+12,-0.07,-0.02,1.03
1.48730509806e+12,-0.05,0.05,1.00
1.487305098557e+12,-0.09,0.06,0.97
1.487305099055e+12,0.02,0.11,1.03
1.487305099547e+12,-0.07,0.13,1.00
1.487305100043e+12,-0.02,0.12,0.99
1.487305100542e+12,-0.06,0.12,1.00
1.487305101024e+12,-0.03,0.16,0.94
1.487305101515e+12,-0.15,0.18,0.98
1.487305102011e+12,-0.09,0.12,1.00
1.487305102509e+12,-0.14,0.15,1.00
1.487305103008e+12,-0.20,0.16,0.98
1.4873051035e+12,-0.12,0.08,1.01
1.487305103995e+12,-0.10,0.22,1.03
1.487305104491e+12,-0.09,0.16,1.07
1.487305104987e+12,-0.04,0.09,0.78
1.487305105483e+12,-0.08,0.14,1.05
1.487305105979e+12,-0.08,0.04,1.13
1.487305106476e+12,-0.11,0.07,0.89
1.487305106973e+12,-0.03,0.01,1.03
1.487305107467e+12,0.04,0.03,0.96
1.487305107964e+12,-0.10,0.10,1.20
1.487305108461e+12,-0.20,0.08,0.91
1.48730510894e+12,-0.08,0.04,0.91
1.48730510945e+12,-0.05,0.05,1.01
1.48730510993e+12,-0.15,0.02,0.96
1.487305110427e+12,-0.13,-0.08,0.97
1.487305110922e+12,-0.09,-0.08,0.99
1.48730511142e+12,-0.19,-0.04,1.05
1.487305111914e+12,-0.07,-0.03,0.95
1.487305112411e+12,-0.25,-0.01,1.01
1.487305112908e+12,-0.07,-0.06,0.99
1.487305113388e+12,-0.17,-0.10,0.94
1.487305113883e+12,-0.09,-0.07,0.97
1.48730511433e+12,-0.11,0.00,0.97
1.487305114844e+12,-0.12,-0.01,1.05
1.487305115338e+12,-0.06,-0.05,1.01
1.487305115834e+12,-0.07,-0.12,0.97
1.48730511633e+12,-0.10,-0.21,1.12
1.487305116828e+12,-0.06,-0.13,1.00
1.487305117324e+12,-0.10,-0.13,0.97
1.487305117822e+12,-0.10,-0.14,1.02
1.487305118314e+12,-0.15,-0.13,1.04
1.48730511881e+12,-0.09,-0.17,0.93
1.48730511931e+12,-0.16,-0.19,0.97
1.487305119804e+12,-0.08,-0.21,1.00
1.487305120298e+12,-0.09,-0.15,1.00
1.48730512081e+12,-0.13,-0.15,1.00
1.487305121291e+12,-0.09,-0.07,0.98
1.487305121804e+12,-0.09,-0.06,1.08
1.487305122298e+12,-0.12,0.02,1.01
1.487305122778e+12,-0.10,-0.02,0.94
1.487305123273e+12,-0.07,0.01,0.97
1.487305123771e+12,-0.13,0.02,0.95
1.487305124266e+12,-0.06,-0.02,1.00
1.48730512476e+12,-0.10,0.02,1.06
1.487305125258e+12,-0.11,0.05,0.98
1.487305125756e+12,-0.06,-0.04,1.04
1.487305126249e+12,-0.06,0.02,1.01
1.487305126746e+12,-0.08,0.04,1.02
1.48730512721e+12,-0.13,0.00,1.00
1.487305127706e+12,-0.07,-0.08,1.03
1.487305128201e+12,-0.06,0.00,0.99
1.487305128681e+12,-0.14,0.02,0.93
1.487305129146e+12,-0.07,0.00,1.06
1.487305129641e+12,-0.09,0.02,1.05
1.487305130137e+12,-0.09,0.03,1.01
1.487305130636e+12,-0.12,-0.00,0.92
1.487305131129e+12,-0.06,-0.01,1.00
1.487305131625e+12,-0.13,0.04,1.05
1.48730513209e+12,-0.13,0.00,1.01
1.487305132587e+12,-0.09,-0.05,0.97
1.487305133082e+12,-0.07,-0.01,1.03
1.487305133576e+12,-0.06,0.05,1.04
1.487305134077e+12,-0.13,0.03,0.90
1.487305134578e+12,-0.03,0.01,0.98
1.487305135053e+12,-0.14,0.04,0.94
1.487305135544e+12,-0.06,-0.01,1.00
1.487305136057e+12,-0.07,-0.00,1.02
1.487305136554e+12,-0.12,0.03,1.00
1.487305137032e+12,-0.08,-0.02,0.94
1.48730513755e+12,-0.13,-0.00,1.02
1.487305138039e+12,-0.12,0.02,1.02
1.487305138522e+12,-0.11,0.00,0.93
1.487305139033e+12,-0.07,0.01,1.04
1.487305139512e+12,-0.12,0.03,0.95
1.487305140007e+12,-0.05,-0.02,1.02
1.487305140521e+12,-0.10,-0.01,1.00
1.487305141016e+12,-0.27,0.03,1.00
1.487305141512e+12,-0.10,-0.19,0.96
1.487305142007e+12,-0.10,-0.02,1.05
1.487305142503e+12,-0.09,0.04,1.01
1.487305143e+12,-0.12,-0.06,0.90
1.487305143479e+12,-0.06,-0.02,0.99
1.487305143975e+12,-0.14,0.02,0.94
1.487305144472e+12,-0.04,0.02,0.98
1.487305144956e+12,-0.13,0.01,0.93
1.487305145448e+12,-0.08,0.02,0.99
1.487305145944e+12,-0.15,0.03,0.93
1.487305146432e+12,-0.06,0.02,0.99
1.487305146932e+12,-0.14,0.02,0.94
1.487305147416e+12,-0.09,0.00,1.00
1.48730514791e+12,-0.09,0.03,1.00
1.48730514841e+12,-0.11,-0.01,0.92
1.487305148913e+12,-0.07,-0.02,0.96
1.487305149392e+12,-0.15,0.04,0.91
1.487305149891e+12,-0.01,-0.01,0.98
1.487305150359e+12,-0.13,0.04,0.96
1.487305150872e+12,-0.07,-0.01,1.00
1.48730515137e+12,-0.21,0.03,1.06
1.487305151847e+12,-0.12,0.02,0.93
1.487305152343e+12,-0.08,0.01,0.98
1.487305152839e+12,-0.13,0.04,0.96
1.487305153344e+12,-0.06,0.01,1.00
1.487305153831e+12,-0.10,0.04,1.06
1.487305154326e+12,-0.14,0.01,0.92
1.487305154807e+12,-0.06,0.01,0.98
1.487305155304e+12,-0.12,0.02,0.93
1.4873051558e+12,-0.07,0.02,0.98
1.487305156278e+12,-0.13,0.02,0.94
1.487305156773e+12,-0.04,0.01,0.99
1.487305157256e+12,-0.14,0.01,0.95
1.487305157754e+12,-0.07,-0.00,0.99
1.487305158246e+12,-0.13,0.03,0.96
1.487305158727e+12,-0.09,0.00,0.99
1.487305159222e+12,-0.10,0.05,0.93
1.487305159721e+12,-0.09,0.06,0.98
1.487305160197e+12,-0.11,0.10,0.97
1.487305160695e+12,-0.07,0.06,0.98
1.487305161189e+12,-0.06,0.07,1.02
1.487305161687e+12,-0.10,0.13,0.98
1.487305162184e+12,-0.05,0.12,0.98
1.487305162677e+12,-0.08,0.14,1.04
1.487305163158e+12,-0.11,0.11,0.99
1.487305163655e+12,-0.07,0.10,0.98
1.487305164149e+12,-0.07,0.21,0.90
1.487305164646e+12,-0.09,0.15,1.02
1.487305165141e+12,-0.08,0.08,0.98
1.487305165639e+12,-0.15,0.04,1.02
1.487305166133e+12,-0.12,0.08,1.04
1.487305166629e+12,-0.12,0.04,1.06
1.487305167126e+12,-0.15,0.03,0.98
1.487305167622e+12,-0.16,0.04,1.00
1.487305168071e+12,-0.11,0.00,0.96
1.487305168565e+12,-0.11,0.03,0.98
1.487305169063e+12,-0.10,-0.04,1.01
1.487305169557e+12,-0.11,0.01,1.01
1.487305170055e+12,-0.07,-0.01,0.97
1.487305170549e+12,-0.06,-0.04,1.04
1.487305171062e+12,-0.12,-0.06,1.03
1.487305171557e+12,-0.06,-0.05,1.01
1.487305172054e+12,-0.13,-0.01,1.02
1.487305172549e+12,-0.11,-0.00,1.00
1.48730517306e+12,-0.12,-0.01,1.00
1.487305173542e+12,-0.12,-0.04,0.83
1.487305174052e+12,-0.12,-0.07,1.01
1.487305174532e+12,-0.04,-0.04,0.92
1.487305175045e+12,-0.03,0.06,1.01
1.487305175525e+12,-0.09,0.06,0.94
1.487305176021e+12,-0.07,0.09,0.95
1.487305176517e+12,-0.14,0.06,1.06
1.487305177013e+12,-0.04,0.00,0.95
1.487305177492e+12,-0.12,0.04,0.97
1.487305177989e+12,-0.11,0.02,0.93
1.487305178487e+12,-0.10,0.02,0.92
1.487305178964e+12,-0.08,-0.03,0.94
1.487305179459e+12,0.06,-0.01,0.98
1.487305179956e+12,-0.12,-0.06,0.99
1.487305180453e+12,-0.04,-0.09,0.95
1.487305180932e+12,-0.09,-0.14,0.99
1.487305181444e+12,-0.15,-0.09,1.01
1.487305181925e+12,-0.31,-0.16,0.96
1.48730518242e+12,-0.21,-0.13,0.98
1.487305182916e+12,-0.11,-0.13,1.00
1.487305183428e+12,-0.07,-0.13,1.01
1.487305183924e+12,-0.10,-0.00,1.02
1.487305184419e+12,-0.02,-0.07,1.01
1.487305184918e+12,-0.03,-0.06,0.94
1.487305185412e+12,-0.07,-0.04,1.00
1.487305185908e+12,-0.05,-0.05,1.01
1.487305186419e+12,-0.07,-0.04,1.03
1.487305186915e+12,-0.08,-0.01,1.04
1.487305187411e+12,-0.06,-0.17,0.99
1.487305187908e+12,-0.11,-0.04,1.00
1.487305188406e+12,-0.06,-0.04,1.01
1.487305188899e+12,-0.08,-0.01,1.04
1.487305189411e+12,-0.11,0.03,1.03
1.487305189907e+12,-0.09,0.00,1.03
1.48730519039e+12,-0.12,0.01,0.94
1.4873051909e+12,-0.11,-0.00,1.03
1.487305191395e+12,-0.05,-0.03,1.03
1.487305191892e+12,-0.09,-0.02,1.03
1.487305192389e+12,-0.08,0.03,1.01
1.487305192883e+12,-0.10,0.01,0.92
1.487305193378e+12,-0.05,0.00,1.00
1.487305193874e+12,-0.10,-0.02,1.02
1.487305194387e+12,-0.10,0.04,1.02
1.487305194868e+12,-0.08,0.03,0.89
1.487305195363e+12,-0.02,-0.00,1.02
1.487305195876e+12,-0.04,0.01,1.04
1.48730519637e+12,-0.09,0.04,1.02
1.487305196851e+12,-0.09,0.01,0.99
1.487305197363e+12,-0.07,-0.02,1.02
1.487305197858e+12,-0.05,0.02,1.00
1.487305198354e+12,-0.08,0.00,1.04
1.487305198837e+12,-0.13,0.03,0.95
1.487305199345e+12,-0.03,-0.03,1.00
1.487305199825e+12,-0.02,0.00,0.99
1.487305200323e+12,-0.15,0.02,0.98
1.487305200822e+12,-0.07,-0.02,1.00
1.487305201314e+12,-0.04,-0.00,1.00
1.487305201762e+12,-0.08,0.00,0.94
1.487305202258e+12,-0.11,0.02,0.94
1.487305202755e+12,-0.04,-0.02,1.01
1.487305203249e+12,-0.03,-0.01,1.01
1.487305203763e+12,-0.09,0.03,1.02
1.487305204242e+12,-0.06,0.01,0.96
1.487305204738e+12,-0.09,0.05,1.04
1.487305205254e+12,-0.08,0.08,1.03
1.487305205729e+12,-0.05,0.02,0.99
1.487305206241e+12,-0.07,0.01,1.02
1.487305206723e+12,-0.04,-0.02,0.99
1.48730520722e+12,-0.04,-0.01,1.00
1.487305207729e+12,-0.04,-0.03,1.04
1.487305208209e+12,-0.10,-0.06,0.96
1.487305208705e+12,-0.07,-0.04,0.97
1.487305209203e+12,-0.05,-0.04,1.00
1.487305209697e+12,-0.10,-0.00,0.95
1.487305210194e+12,-0.06,-0.03,1.01
1.487305210689e+12,-0.13,-0.00,0.94
1.487305211185e+12,-0.11,-0.01,0.95
1.487305211665e+12,-0.12,-0.01,0.95
1.487305212161e+12,-0.12,0.00,0.93
1.487305212657e+12,-0.05,-0.02,0.97
1.487305213154e+12,-0.02,-0.01,1.04
1.487305213648e+12,-0.06,-0.02,1.01
1.487305214145e+12,-0.12,-0.01,0.94
1.487305214625e+12,-0.14,0.02,0.93
1.487305215121e+12,-0.13,0.01,0.93
1.487305215618e+12,-0.14,0.01,0.94
1.487305216097e+12,-0.15,0.03,0.94
1.487305216561e+12,-0.15,0.00,1.02
1.487305217056e+12,-0.10,0.02,1.05
1.487305217552e+12,-0.04,0.02,0.98
1.487305218032e+12,-0.04,0.02,0.98
1.48730521853e+12,-0.04,0.01,0.99
1.487305219024e+12,-0.05,0.01,0.99
1.487305219524e+12,-0.04,0.02,1.01
1.487305220024e+12,-0.04,0.01,0.99
1.487305220496e+12,-0.03,0.00,0.99
1.487305220992e+12,-0.03,0.02,0.98
1.487305221472e+12,-0.03,0.02,0.99
1.48730522197e+12,-0.02,0.01,0.98
1.487305222464e+12,-0.04,0.02,0.99
1.487305222943e+12,-0.03,0.02,0.97
1.487305223441e+12,-0.04,0.02,0.97
1.487305223935e+12,-0.03,0.02,0.97
1.487305224415e+12,-0.03,0.01,0.98
1.487305224913e+12,-0.03,0.02,0.98
1.487305225391e+12,-0.03,0.02,0.97
1.487305225888e+12,-0.04,0.03,0.97
1.487305226384e+12,-0.04,0.02,0.96
1.487305226863e+12,-0.03,0.02,0.98
1.487305227361e+12,-0.03,0.02,0.97
1.487305227856e+12,-0.03,0.01,0.97
1.487305228337e+12,-0.03,0.01,0.97
1.487305228833e+12,-0.05,0.01,0.98
1.487305229328e+12,-0.04,0.02,0.98
1.487305229807e+12,-0.03,0.01,0.98
1.487305230305e+12,-0.04,0.02,0.98
1.487305230803e+12,-0.04,0.01,1.00
1.487305231294e+12,-0.04,0.01,1.00
1.487305231791e+12,-0.06,-0.01,1.00
1.487305232288e+12,-0.14,0.01,0.94
1.487305232783e+12,-0.13,0.03,0.94
1.487305233263e+12,-0.06,0.04,0.98
1.487305233759e+12,-0.06,0.03,1.03
1.487305234255e+12,0.07,0.11,0.89
1.487305234751e+12,-0.10,0.15,0.96
1.487305235231e+12,-0.06,0.14,0.99
1.487305235742e+12,-0.08,0.14,1.04
1.487305236223e+12,-0.09,0.13,0.96
1.487305236718e+12,-0.15,0.19,0.97
1.487305237214e+12,-0.15,0.24,0.84
1.48730523771e+12,-0.09,0.05,1.02
1.48730523819e+12,-0.10,0.19,0.94
1.487305238703e+12,-0.17,0.14,1.03
1.487305239198e+12,-0.24,0.10,1.09
1.487305239678e+12,-0.07,0.07,0.94
1.487305240191e+12,0.86,0.10,1.12
1.487305240671e+12,-0.07,0.08,0.93
1.487305241119e+12,-0.20,0.00,0.98
1.487305241629e+12,-0.12,0.11,1.03
1.487305242126e+12,-0.08,0.06,1.03
1.487305242607e+12,-0.08,0.08,0.89
1.487305243101e+12,-0.13,0.08,0.96
1.487305243601e+12,-0.13,0.06,0.91
1.487305244093e+12,-0.11,0.04,1.01
1.487305244588e+12,-0.15,0.08,1.04
1.487305245085e+12,-0.07,0.04,1.06
1.487305245582e+12,-0.14,0.07,0.92
1.487305246078e+12,-0.18,-0.00,1.01
1.487305246574e+12,-0.14,0.02,0.98
1.487305247056e+12,-0.14,-0.04,0.93
1.487305247551e+12,-0.05,0.11,1.00
1.487305248062e+12,-0.01,-0.17,1.10
1.487305248542e+12,-0.16,-0.03,0.99
1.487305249055e+12,-0.18,-0.04,1.05
1.487305249551e+12,-0.09,-0.05,1.04
1.487305250046e+12,-0.29,0.04,0.98
1.487305250542e+12,-0.11,0.04,1.03
1.487305251041e+12,-0.17,0.05,1.11
1.487305251535e+12,-0.22,0.06,1.06
1.48730525203e+12,-0.10,0.06,0.94
1.487305252525e+12,-0.19,0.07,1.01
1.487305253021e+12,-0.13,-0.00,1.06
1.487305253517e+12,-0.14,0.01,0.95
1.487305254013e+12,-0.21,-0.05,1.02
1.487305254526e+12,-0.11,-0.05,1.35
1.487305255006e+12,-0.23,-0.19,0.95
1.487305255503e+12,-0.03,-0.13,0.94
1.487305255996e+12,-0.16,-0.06,0.96
1.487305256492e+12,-0.06,-0.29,1.03
1.487305256989e+12,-0.13,-0.25,1.11
1.487305257502e+12,-0.12,-0.25,1.01
1.487305257981e+12,-0.10,-0.21,0.97
1.487305258477e+12,-0.08,-0.15,0.94
1.487305258973e+12,-0.13,-0.17,0.99
1.487305259452e+12,-0.10,-0.08,0.93
1.487305259949e+12,-0.09,-0.09,0.97
1.487305260445e+12,-0.13,-0.01,0.99
1.487305260941e+12,-0.07,-0.03,1.02
1.487305261436e+12,-0.14,-0.01,0.97
1.487305261932e+12,-0.05,-0.02,1.07
1.487305262382e+12,-0.13,0.00,0.97
1.487305262892e+12,-0.05,-0.00,1.05
1.487305263372e+12,-0.17,0.02,0.96
1.487305263868e+12,-0.08,0.02,1.06
1.487305264366e+12,-0.13,-0.00,0.98
1.487305264872e+12,-0.10,0.03,1.02
1.487305265357e+12,-0.13,-0.02,1.01
1.487305265853e+12,-0.06,0.00,1.07
1.487305266364e+12,-0.14,-0.02,1.00
1.487305266858e+12,-0.05,-0.00,1.07
1.48730526734e+12,-0.15,-0.00,0.97
1.487305267851e+12,-0.09,0.02,1.03
1.487305268331e+12,-0.13,-0.01,0.99
1.487305268828e+12,-0.11,0.03,0.97
1.487305269323e+12,-0.06,0.03,0.97
1.487305269804e+12,-0.15,-0.01,0.98
1.487305270314e+12,-0.10,0.02,1.02
1.48730527081e+12,-0.12,-0.02,1.00
1.487305271306e+12,-0.06,0.01,1.06
1.487305271804e+12,-0.15,-0.01,0.99
1.4873052723e+12,-0.08,0.03,1.02
1.487305272796e+12,-0.13,-0.03,1.01
1.48730527329e+12,-0.06,0.01,1.07
1.487305273786e+12,-0.15,-0.00,0.97
1.487305274285e+12,-0.07,0.01,1.04
1.487305274778e+12,-0.15,-0.01,0.99
1.487305275275e+12,-0.09,0.02,1.01
1.487305275769e+12,-0.13,-0.02,0.99
1.487305276268e+12,-0.10,0.03,1.00
1.487305276761e+12,-0.12,-0.02,1.02
1.487305277257e+12,-0.06,0.00,1.05
1.487305277754e+12,-0.14,-0.03,0.99
1.487305278252e+12,-0.11,0.02,0.99
1.48730527873e+12,-0.07,0.04,0.96
1.487305279226e+12,-0.16,0.02,0.97
1.487305279724e+12,-0.08,0.02,1.03
1.48730528022e+12,-0.14,-0.02,1.00
1.487305280667e+12,-0.06,0.00,0.95
1.487305281163e+12,-0.16,-0.02,0.99
1.487305281659e+12,-0.10,0.02,1.00
1.487305282171e+12,-0.12,-0.02,1.01
1.487305282667e+12,-0.06,0.01,1.05
1.487305283147e+12,-0.15,-0.00,0.97
1.487305283659e+12,-0.09,0.01,1.03
1.48730528414e+12,-0.15,-0.02,0.99
1.487305284634e+12,-0.09,0.03,0.99
1.48730528513e+12,-0.07,0.03,0.97
1.48730528561e+12,-0.16,0.04,0.96
1.487305286107e+12,-0.05,-0.00,1.05
1.487305286603e+12,-0.15,-0.00,0.98
1.487305287099e+12,-0.08,0.03,1.02
1.487305287594e+12,-0.14,-0.03,0.99
1.487305288089e+12,-0.11,0.04,0.97
1.487305288609e+12,-0.07,0.04,0.98
1.48730528907e+12,-0.15,0.00,0.97
1.487305289545e+12,-0.11,0.04,0.99
1.487305290057e+12,-0.07,0.02,1.00
1.487305290557e+12,-0.06,0.01,1.04
1.487305291034e+12,-0.15,0.05,0.96
1.487305291528e+12,-0.07,0.03,0.99
1.487305292025e+12,-0.13,0.05,0.98
1.487305292473e+12,-0.12,0.00,1.02
1.487305292969e+12,-0.05,0.02,0.99
1.487305293464e+12,-0.13,0.06,0.97
1.48730529396e+12,-0.09,0.01,1.00
1.487305294457e+12,-0.05,0.01,1.04
1.487305294955e+12,-0.14,0.05,0.96
1.487305295434e+12,-0.05,0.03,0.99
1.487305295928e+12,-0.15,0.06,0.96
1.487305296424e+12,-0.09,0.02,0.99
1.487305296904e+12,-0.11,0.05,0.98
1.487305297401e+12,-0.10,0.01,1.00
1.487305297912e+12,-0.05,0.01,1.05
1.487305298393e+12,-0.14,0.06,0.96
1.487305298889e+12,-0.09,0.02,0.99
1.487305299383e+12,-0.10,0.04,1.02
1.487305299879e+12,-0.14,0.01,0.95
1.487305300377e+12,-0.03,0.04,1.03
1.487305300871e+12,-0.12,0.05,0.97
1.48730530137e+12,-0.12,0.00,1.00
1.487305301865e+12,-0.06,0.01,1.04
1.487305302359e+12,-0.18,0.06,0.96
1.487305302809e+12,-0.06,0.00,1.03
1.487305303303e+12,-0.04,0.06,1.04
1.487305303799e+12,-0.14,0.10,0.95
1.487305304295e+12,-0.18,0.17,0.98
1.487305304776e+12,-0.08,0.19,0.95
1.487305305273e+12,-0.07,0.18,0.96
1.487305305767e+12,-0.10,0.16,0.99
1.487305306248e+12,-0.10,0.09,0.98
1.487305306742e+12,-0.08,0.15,0.94
1.487305307223e+12,-0.09,0.09,0.98
1.48730530772e+12,-0.05,-0.04,0.92
1.487305308216e+12,-0.11,-0.00,0.96
1.487305308713e+12,-0.17,-0.04,1.02
1.487305309207e+12,-0.16,-0.01,0.92
1.487305309702e+12,-0.14,0.09,1.00
1.4873053102e+12,-0.11,0.07,0.94
1.487305310678e+12,-0.18,0.15,0.94
1.487305311175e+12,-0.10,0.10,0.99
1.487305311671e+12,-0.16,0.06,1.02
1.487305312168e+12,-0.16,0.01,1.00
1.487305312663e+12,-0.08,0.00,1.00
1.487305313158e+12,-0.05,0.03,1.04
1.48730531367e+12,-0.22,-0.03,1.06
1.487305314167e+12,-0.08,-0.06,1.04
1.487305314662e+12,-0.14,-0.18,0.93
1.487305315158e+12,0.02,-0.11,1.05
1.487305315657e+12,-0.15,-0.03,1.09
1.487305316152e+12,-0.06,-0.09,0.96
1.487305316646e+12,-0.06,-0.14,1.06
1.487305317145e+12,-0.06,-0.13,1.07
1.487305317641e+12,-0.08,-0.13,1.00
1.487305318135e+12,-0.13,-0.00,0.94
1.487305318629e+12,-0.05,-0.09,1.06
1.487305319127e+12,-0.14,-0.12,1.00
1.487305319622e+12,-0.04,-0.07,0.98
1.487305320119e+12,-0.09,-0.03,0.96
1.487305320614e+12,-0.11,-0.02,1.03
1.48730532111e+12,-0.08,-0.07,0.97
1.487305321606e+12,-0.11,-0.02,0.95
1.487305322102e+12,-0.08,-0.02,1.07
1.487305322599e+12,-0.08,-0.03,1.03
1.487305323045e+12,-0.06,0.00,0.92
1.487305323541e+12,-0.08,-0.03,0.99
1.487305324037e+12,-0.13,0.03,0.92
1.487305324534e+12,-0.06,0.02,1.05
1.487305325029e+12,-0.11,-0.04,0.99
1.487305325509e+12,-0.11,0.00,0.92
1.487305326006e+12,-0.10,-0.06,1.07
1.487305326502e+12,-0.10,-0.04,0.99
1.487305326997e+12,-0.11,0.03,0.97
1.487305327492e+12,-0.03,-0.01,0.99
1.487305327988e+12,-0.10,-0.02,1.00
1.487305328485e+12,-0.04,-0.01,1.05
1.487305328981e+12,-0.12,-0.01,0.99
1.487305329477e+12,-0.08,0.00,1.04
1.487305329975e+12,-0.09,-0.02,0.99
1.487305330453e+12,-0.12,0.04,0.93
1.487305330966e+12,-0.03,-0.01,1.06
1.487305331444e+12,-0.10,-0.01,0.98
1.487305331941e+12,-0.09,0.01,1.04
1.487305332453e+12,-0.07,-0.03,1.00
1.487305332902e+12,-0.09,0.00,0.95
1.487305333381e+12,-0.09,-0.04,0.98
1.487305333877e+12,-0.11,0.03,0.96
1.487305334373e+12,-0.04,-0.01,1.03
1.487305334869e+12,-0.12,0.01,0.96
1.487305335318e+12,-0.06,0.00,0.94
1.487305335813e+12,-0.08,-0.07,1.01
1.487305336309e+12,-0.07,0.00,1.06
1.48730533682e+12,-0.10,-0.05,1.00
1.487305337269e+12,-0.07,0.00,0.94
1.487305337767e+12,-0.09,-0.04,1.01
1.487305338216e+12,-0.07,0.00,0.94
1.487305338708e+12,-0.09,-0.03,1.01
1.487305339156e+12,-0.08,0.00,0.95
1.487305339651e+12,-0.09,-0.03,0.99
1.48730534015e+12,-0.12,0.02,0.92
1.487305340644e+12,-0.05,-0.03,1.09
1.48730534114e+12,-0.09,-0.02,1.00
1.487305341652e+12,-0.04,-0.02,1.06
1.487305342132e+12,-0.11,-0.01,0.98
1.487305342643e+12,-0.09,-0.00,1.04
1.48730534314e+12,-0.09,-0.04,1.00
1.487305343636e+12,-0.09,0.00,1.03
1.487305344133e+12,-0.10,-0.04,0.99
1.487305344613e+12,-0.10,0.04,0.95
1.48730534511e+12,-0.01,-0.00,1.00
1.487305345627e+12,-0.10,-0.03,1.01
1.487305346118e+12,-0.01,-0.02,1.03
1.487305346613e+12,-0.10,0.03,0.96
1.487305347106e+12,-0.07,-0.02,1.06
1.487305347605e+12,-0.11,-0.01,1.00
1.487305348101e+12,-0.03,-0.02,1.06
1.487305348594e+12,-0.12,-0.00,0.98
1.487305349092e+12,-0.09,0.01,1.04
1.487305349587e+12,-0.11,-0.05,1.00
1.487305350084e+12,-0.07,-0.00,1.05
1.487305350599e+12,-0.08,-0.04,1.01
1.487305351091e+12,-0.07,-0.02,1.08
1.487305351587e+12,-0.11,-0.01,1.00
1.487305352093e+12,-0.03,-0.00,1.07
1.48730535258e+12,-0.10,-0.02,1.00
1.487305353121e+12,-0.04,-0.02,1.06
1.487305353586e+12,-0.11,-0.03,1.00
1.487305354084e+12,-0.03,-0.02,1.05
1.487305354579e+12,-0.09,0.03,0.94
1.487305355075e+12,-0.05,-0.03,1.07
1.48730535557e+12,-0.11,-0.03,1.00
1.487305356082e+12,-0.03,0.02,1.07
1.487305356562e+12,-0.10,-0.01,0.99
1.487305357074e+12,-0.07,-0.01,1.05
1.487305357571e+12,-0.12,-0.03,1.00
1.487305358066e+12,-0.05,-0.03,1.06
1.487305358562e+12,-0.10,-0.02,1.01
1.487305359076e+12,-0.03,-0.02,1.03
1.487305359555e+12,-0.10,0.02,0.96
1.48730536005e+12,-0.08,-0.01,1.05
1.487305360562e+12,-0.10,-0.03,1.00
1.487305361058e+12,-0.05,-0.02,1.09
1.487305361553e+12,-0.09,-0.03,1.02
1.487305362066e+12,-0.04,-0.03,1.06
1.487305362545e+12,-0.11,0.02,0.98
1.487305363041e+12,-0.09,-0.01,1.06
1.487305363554e+12,-0.10,-0.03,1.01
1.487305364049e+12,-0.04,-0.03,1.07
1.487305364545e+12,-0.09,-0.00,1.00
1.487305365042e+12,-0.03,-0.03,1.06
1.487305365538e+12,-0.11,-0.01,0.99
1.487305366034e+12,-0.08,0.00,1.05
1.487305366528e+12,-0.11,-0.04,0.98
1.487305367025e+12,-0.12,0.05,0.94
1.487305367521e+12,-0.02,-0.02,1.04
1.487305368019e+12,-0.11,0.03,0.96
1.487305368513e+12,-0.06,-0.03,1.07
1.487305369009e+12,-0.10,-0.03,1.00
1.487305369505e+12,-0.03,0.00,1.04
1.487305370001e+12,-0.09,0.04,1.01
1.487305370496e+12,-0.04,-0.01,1.00
1.487305371009e+12,-0.20,0.15,1.00
1.487305371505e+12,-0.05,0.19,1.02
1.487305372002e+12,-0.09,0.17,1.03
1.487305372496e+12,-0.13,0.11,1.01
1.487305372992e+12,-0.10,0.08,1.05
1.487305373489e+12,-0.16,0.04,0.93
1.487305373984e+12,-0.17,0.03,0.93
1.487305374468e+12,-0.24,0.05,0.96
1.487305374975e+12,-0.20,-0.01,1.02
1.487305375474e+12,-0.25,-0.01,1.08
1.487305375969e+12,-0.21,-0.02,0.97
1.487305376467e+12,-0.29,0.01,1.07
1.487305376946e+12,-0.17,-0.00,0.98
1.487305377441e+12,-0.18,-0.06,0.98
1.487305377937e+12,-0.10,-0.00,0.97
1.487305378435e+12,-0.05,-0.04,1.00
1.487305378928e+12,-0.01,-0.10,0.96
1.487305379424e+12,-0.08,-0.05,1.02
1.48730537992e+12,-0.07,-0.16,1.00
1.487305380368e+12,0.00,-0.14,1.00
1.487305380864e+12,-0.04,-0.11,0.97
1.487305381376e+12,-0.05,-0.11,1.03
1.487305381861e+12,-0.11,-0.04,0.97
1.487305382368e+12,-0.03,-0.07,1.02
1.487305382848e+12,-0.06,0.01,0.94
1.487305383359e+12,-0.05,-0.08,1.04
1.487305383838e+12,-0.09,0.03,0.97
1.487305384334e+12,0.02,-0.00,1.01
1.487305384832e+12,-0.08,0.04,0.98
1.487305385311e+12,-0.00,-0.00,0.98
1.487305385809e+12,-0.06,0.01,0.99
1.487305386304e+12,-0.08,0.01,1.06
1.487305386798e+12,-0.06,0.04,0.96
1.487305387294e+12,-0.05,-0.00,1.03
1.487305387791e+12,-0.06,0.05,0.97
1.487305388288e+12,-0.04,0.01,1.00
1.487305388784e+12,-0.10,0.05,1.00
1.487305389266e+12,-0.06,-0.04,0.99
1.487305389775e+12,-0.10,0.04,1.00
1.48730539027e+12,-0.01,-0.02,1.02
1.487305390769e+12,-0.01,-0.04,1.01
1.487305391265e+12,-0.09,0.06,0.99
1.487305391711e+12,-0.01,0.00,1.06
1.487305392223e+12,-0.05,-0.01,1.06
1.487305392703e+12,-0.07,0.05,0.98
1.487305393198e+12,0.01,-0.02,1.02
1.487305393694e+12,-0.07,0.04,0.96
1.487305394191e+12,-0.01,-0.00,0.96
1.487305394671e+12,-0.06,0.05,0.99
1.487305395183e+12,-0.02,-0.01,1.05
1.487305395662e+12,-0.12,0.04,0.95
1.487305396157e+12,-0.00,-0.01,0.98
1.487305396655e+12,-0.07,0.05,0.99
1.487305397135e+12,-0.00,0.00,1.04
1.487305397631e+12,-0.05,0.03,0.98
1.487305398126e+12,-0.01,-0.00,1.04
1.487305398622e+12,-0.07,0.06,0.97
1.487305399118e+12,0.01,-0.00,1.01
1.487305399616e+12,-0.05,0.05,0.98
1.487305400093e+12,-0.00,-0.00,1.00
1.487305400591e+12,-0.08,0.04,0.97
1.487305401086e+12,-0.00,0.00,1.02
1.487305401583e+12,-0.06,0.06,0.99
1.487305402078e+12,0.01,-0.00,1.02
1.487305402558e+12,-0.09,0.06,0.99
1.487305403022e+12,0.00,0.04,1.01
1.487305403519e+12,-0.11,0.04,0.99
1.487305403999e+12,-0.04,-0.03,0.95
1.487305404493e+12,-0.09,0.08,0.96
1.48730540499e+12,-0.01,-0.01,0.96
1.487305405469e+12,-0.09,0.08,0.99
1.487305405966e+12,-0.00,-0.00,1.00
1.48730540646e+12,-0.07,0.06,0.98
1.487305406956e+12,0.00,-0.01,1.02
1.487305407455e+12,-0.10,0.08,0.98
1.487305407902e+12,0.00,0.02,1.02
1.4873054084e+12,-0.14,0.03,1.02
1.487305408847e+12,-0.07,0.00,0.97
1.487305409341e+12,0.00,-0.00,1.04
1.487305409837e+12,-0.07,0.04,0.98
1.487305410334e+12,-0.01,-0.00,1.04
1.487305410829e+12,-0.09,0.05,0.98
1.487305411309e+12,-0.00,0.00,0.99
1.487305411805e+12,-0.08,-0.00,1.01
1.487305412253e+12,0.00,0.00,1.00
1.487305412748e+12,-0.10,0.05,0.96
1.487305413245e+12,-0.00,-0.00,0.97
1.487305413725e+12,-0.08,0.03,0.99
1.48730541422e+12,-0.01,-0.01,1.04
1.487305414716e+12,-0.06,0.06,0.95
1.487305415181e+12,-0.01,0.00,1.04
1.487305415677e+12,-0.10,0.01,1.03
1.487305416172e+12,-0.06,0.03,1.00
1.487305416636e+12,-0.00,0.00,1.04
1.487305417132e+12,-0.10,0.01,1.02
1.487305417612e+12,-0.07,0.03,0.99
1.487305418126e+12,-0.02,-0.01,1.03
1.487305418604e+12,-0.12,0.06,0.95
1.487305419099e+12,0.00,0.00,0.98
1.487305419597e+12,-0.08,-0.01,1.01
1.487305420044e+12,0.02,0.00,1.03
1.48730542054e+12,-0.10,0.00,1.04
1.487305421051e+12,-0.08,0.02,1.00
1.487305421533e+12,0.01,0.00,1.00
1.487305422028e+12,-0.06,0.05,0.95
1.487305422507e+12,0.00,-0.00,0.99
1.48730542302e+12,-0.07,-0.02,1.02
1.487305423467e+12,0.00,0.01,1.05
1.487305423964e+12,-0.10,-0.00,1.05
1.48730542446e+12,-0.06,0.03,0.99
1.487305424956e+12,-0.02,-0.00,1.04
1.48730542545e+12,-0.09,0.07,0.96
1.487305425899e+12,0.00,0.02,1.00
1.487305426396e+12,-0.10,0.05,0.99
1.487305426892e+12,-0.04,-0.03,0.97
1.487305427371e+12,-0.09,0.04,0.96
1.487305427867e+12,-0.02,-0.01,0.98
1.487305428366e+12,-0.09,0.04,0.96
1.487305428843e+12,-0.00,0.00,0.96
1.487305429341e+12,-0.07,0.03,1.00
1.487305429834e+12,-0.00,-0.00,0.97
1.487305430315e+12,-0.07,0.05,0.98
1.48730543081e+12,0.00,-0.00,1.01
1.487305431306e+12,-0.05,0.05,0.96
1.487305431755e+12,0.00,0.01,1.02
1.487305432251e+12,-0.08,0.00,1.03
1.487305432747e+12,-0.07,0.00,1.00
1.487305433196e+12,0.00,0.08,0.99
1.487305433691e+12,-0.08,0.12,0.97
1.487305434187e+12,-0.08,0.02,0.97
1.487305434682e+12,-0.05,0.18,1.00
1.487305435164e+12,-0.05,0.15,0.98
1.487305435658e+12,-0.04,0.18,0.97
1.487305436155e+12,-0.14,0.15,0.98
1.487305436635e+12,-0.05,0.15,0.98
1.487305437132e+12,-0.09,0.11,0.98
1.487305437626e+12,-0.05,0.18,0.95
1.487305438123e+12,-0.06,0.12,1.01
1.487305438617e+12,-0.08,0.07,0.97
1.487305439118e+12,-0.09,0.08,1.02
1.487305439593e+12,-0.06,0.04,0.98
1.487305440091e+12,-0.14,0.05,0.97
1.487305440586e+12,-0.15,0.03,0.93
1.487305441066e+12,-0.11,-0.02,0.99
1.487305441562e+12,-0.17,-0.01,0.98
1.487305442058e+12,-0.12,-0.02,1.03
1.48730544257e+12,-0.07,-0.00,1.03
1.48730544305e+12,-0.08,-0.13,0.95
1.487305443564e+12,-0.13,-0.12,1.01
1.487305444044e+12,-0.10,-0.09,0.97
1.487305444553e+12,-0.05,-0.15,1.01
1.487305445035e+12,-0.07,-0.05,0.95
1.487305445529e+12,-0.09,-0.08,0.99
1.487305446025e+12,-0.09,-0.15,0.99
1.487305446523e+12,-0.05,-0.14,1.03
1.487305447034e+12,-0.06,-0.08,1.04
1.48730544753e+12,-0.09,-0.05,1.00
1.487305448009e+12,-0.12,-0.06,0.98
1.487305448506e+12,-0.03,-0.05,0.96
1.487305448954e+12,-0.07,0.00,0.98
1.487305449448e+12,-0.10,0.02,0.98
1.487305449945e+12,-0.02,-0.02,0.98
1.487305450441e+12,-0.09,0.03,1.02
1.487305450938e+12,-0.09,0.05,1.02
1.487305451433e+12,-0.09,0.06,1.02
1.48730545193e+12,-0.01,-0.06,0.96
1.487305452425e+12,-0.09,-0.04,1.03
1.487305452938e+12,-0.08,0.02,1.01
